time,seconds_elapsed,z,y,x
1712835419233858000,0.092858154296875,0.05374336242675781,-0.3565549850463867,0.08530354499816895
1712835419255858200,0.114858154296875,0.20895957946777344,-0.25304508209228516,0.3265089988708496
1712835419275858200,0.134858154296875,0.16655254364013672,-0.05371522903442383,-0.5587894916534424
1712835419295858200,0.154858154296875,0.017629146575927734,-0.21184110641479492,-0.36159276962280273
1712835419315858200,0.174858154296875,-0.19808530807495117,-0.18125438690185547,-0.23911356925964355
1712835419335858200,0.194858154296875,0.05112791061401367,-0.19372272491455078,-0.3867161273956299
1712835419355858200,0.214858154296875,0.2395915985107422,-0.26570987701416016,0.2513394355773926
1712835419375858200,0.234858154296875,0.11071538925170898,-0.24819421768188477,-0.022000789642333984
1712835419395858200,0.254858154296875,0.04057884216308594,-0.2233290672302246,-0.29912686347961426
1712835419415858200,0.274858154296875,0.059322357177734375,-0.35721445083618164,0.17999696731567383
1712835419435858200,0.294858154296875,-0.03292083740234375,-0.595090389251709,0.8355610370635986
1712835419455858200,0.314858154296875,-0.2803339958190918,-0.5896635055541992,1.9583237171173096
1712835419475858200,0.334858154296875,-0.4727168083190918,-0.6307916641235352,3.239032745361328
1712835419495858200,0.354858154296875,-0.35620546340942383,-0.9110245704650879,3.2917516231536865
1712835419515858200,0.374858154296875,-0.23030328750610352,-0.7256021499633789,2.363781452178955
1712835419535858200,0.394858154296875,0.7956595420837402,-1.7766661643981934,3.0101122856140137
1712835419555858200,0.414858154296875,-1.5933794975280762,1.1810450553894043,4.8040337562561035
1712835419575858200,0.434858154296875,-2.905128002166748,2.687213897705078,2.993422031402588
1712835419595858200,0.454858154296875,-1.8804476261138916,3.1968607902526855,0.4948921203613281
1712835419615858200,0.474858154296875,-3.139937400817871,1.368772029876709,-2.0718588829040527
1712835419635858700,0.494858642578125,-2.0235655307769775,0.3604907989501953,-1.4397554397583008
1712835419655858700,0.514858642578125,-0.889214277267456,0.18001890182495117,1.03078031539917
1712835419675858700,0.534858642578125,-0.10976552963256836,0.395444393157959,2.7993826866149902
1712835419695858700,0.554858642578125,-0.12826013565063477,1.0563359260559082,2.6650643348693848
1712835419715858700,0.574858642578125,-1.0355703830718994,1.5188074111938477,1.0115835666656494
1712835419735858700,0.594858642578125,-1.9346458911895752,1.3803458213806152,-0.20467758178710938
1712835419755858700,0.614858642578125,-1.2796943187713623,1.434260368347168,0.02113199234008789
1712835419775858700,0.634858642578125,-1.0992720127105713,1.1797122955322266,-0.31564974784851074
1712835419795858700,0.654858642578125,-2.659580707550049,5.390957832336426,-0.5851857662200928
1712835419815858700,0.674858642578125,-2.1324243545532227,3.2293338775634766,-4.380664825439453
1712835419835858700,0.694858642578125,-2.0089025497436523,3.0673179626464844,-4.706419944763184
1712835419855858700,0.714858642578125,-0.47501683235168457,1.89990234375,-3.692885160446167
1712835419875858700,0.734858642578125,-0.5202937126159668,2.68546199798584,-3.05010986328125
1712835419895858700,0.754858642578125,0.4597032070159912,2.423494338989258,-3.0812292098999023
1712835419915858700,0.774858642578125,-0.6506977081298828,1.0835933685302734,-3.371795892715454
1712835419935858700,0.794858642578125,-1.9290771484375,-0.03719902038574219,-3.518371105194092
1712835419955858700,0.814858642578125,-2.2163991928100586,-0.9709253311157227,-3.420240879058838
1712835419975858700,0.834858642578125,-0.8658294677734375,-0.8916969299316406,-2.7099015712738037
1712835419995858700,0.854858642578125,-0.7843019962310791,-0.9183235168457031,-3.0074102878570557
1712835420015858700,0.874858642578125,-1.4458526372909546,-0.7042350769042969,1.5160470008850098
1712835420035858700,0.894858642578125,-1.4427822828292847,-0.7046632766723633,1.5006847381591797
1712835420055858700,0.914858642578125,-0.7758219242095947,-1.9018735885620117,0.22416402399539948
1712835420075858700,0.934858642578125,-0.8699545860290527,-1.1861600875854492,-3.1808385848999023
1712835420095858700,0.954858642578125,-0.7737717628479004,-1.753171443939209,-5.106500148773193
1712835420115858700,0.974858642578125,-0.7971985340118408,-1.7227578163146973,-4.721451282501221
1712835420135859000,0.99485888671875,-0.10193037986755371,-1.163386344909668,-5.245675086975098
1712835420155859000,1.01485888671875,-0.7097985744476318,0.08102798461914062,-5.131573677062988
1712835420175859000,1.03485888671875,-0.8550634384155273,-0.7244501113891602,-6.5027384757995605
1712835420195859000,1.05485888671875,-0.5007603168487549,-1.8948206901550293,-5.638586044311523
1712835420215859000,1.07485888671875,-2.422804832458496,-2.5382533073425293,-3.532365322113037
1712835420235858700,1.094858642578125,-3.4464268684387207,-2.706207275390625,0.450036883354187
1712835420255858700,1.114858642578125,-3.5382401943206787,-3.596076011657715,2.7351226806640625
1712835420275858700,1.134858642578125,-4.212850093841553,-3.9872846603393555,1.8192745447158813
1712835420295858700,1.154858642578125,-4.054740905761719,-4.0633649826049805,1.629751205444336
1712835420315858700,1.174858642578125,-4.969655990600586,-3.014103889465332,0.420293927192688
1712835420335858700,1.194858642578125,-3.292576313018799,-2.3360018730163574,-0.43277621269226074
1712835420355858700,1.214858642578125,-1.099169135093689,-1.7404117584228516,-0.9982360601425171
1712835420375858700,1.234858642578125,-0.923385500907898,-1.752157211303711,-0.8920530080795288
1712835420395858700,1.254858642578125,1.304750919342041,1.3725652694702148,0.9256448745727539
1712835420415858700,1.274858642578125,1.966721773147583,2.4162158966064453,1.3415300846099854
1712835420435858700,1.294858642578125,1.989841341972351,2.4657983779907227,1.5664777755737305
1712835420455858700,1.314858642578125,4.456905364990234,3.6834850311279297,2.0770151615142822
1712835420475858700,1.334858642578125,4.318958282470703,3.9830732345581055,5.65919303894043
1712835420495858700,1.354858642578125,4.30654764175415,3.9852294921875,5.660687446594238
1712835420515858700,1.374858642578125,1.902956247329712,2.9096736907958984,9.18848705291748
1712835420535858700,1.394858642578125,0.1343996524810791,5.33656120300293,8.539312362670898
1712835420555858700,1.414858642578125,0.8337088823318481,5.876564025878906,4.164085865020752
1712835420575858700,1.434858642578125,0.5582611560821533,3.0559005737304688,-0.8514690399169922
1712835420595858700,1.454858642578125,0.3391636610031128,3.0477495193481445,-1.1035528182983398
1712835420615858700,1.474858642578125,-1.3385735750198364,2.4139699935913086,0.40743303298950195
1712835420635859000,1.49485888671875,-0.5954890251159668,2.5373525619506836,-0.14688313007354736
1712835420655859000,1.51485888671875,-0.9523012638092041,2.108025550842285,-0.7625552415847778
1712835420675859000,1.53485888671875,-1.0856194496154785,2.130202293395996,-0.887131929397583
1712835420695859000,1.55485888671875,-0.7151848077774048,1.1632757186889648,-1.370591163635254
1712835420715859000,1.57485888671875,-1.3607100248336792,1.397538185119629,-2.0571882724761963
1712835420735858700,1.594858642578125,-1.5663502216339111,1.9408979415893555,-2.5414719581604004
1712835420755858700,1.614858642578125,-2.135855197906494,2.1264753341674805,-2.6973562240600586
1712835420775858700,1.634858642578125,-2.8986644744873047,2.02584171295166,-1.805780291557312
1712835420795858700,1.654858642578125,-2.7917566299438477,1.4900760650634766,-1.8354754447937012
1712835420815858700,1.674858642578125,-3.23539137840271,0.9611968994140625,-0.8351389169692993
1712835420835858700,1.694858642578125,-3.013545036315918,2.088568687438965,-0.014752507209777832
1712835420855858700,1.714858642578125,-3.9980387687683105,1.8100166320800781,-0.6697934865951538
1712835420875764200,1.73476416015625,-4.285022258758545,2.0190916061401367,-0.45256268978118896
1712835420895764200,1.75476416015625,-4.004387855529785,1.6618785858154297,-0.8938384056091309
1712835420915764200,1.77476416015625,-2.7643778324127197,-0.497922420501709,-3.526345729827881
1712835420935764200,1.79476416015625,-3.1516382694244385,-0.7984352111816406,-3.4736950397491455
1712835420955764200,1.81476416015625,-3.0297505855560303,-1.444136619567871,-2.1123158931732178
1712835420975764200,1.83476416015625,-2.4437828063964844,-2.0767641067504883,-1.7857773303985596
1712835420995764200,1.85476416015625,-2.7913050651550293,-1.8112497329711914,-2.039834499359131
1712835421015764200,1.87476416015625,-4.934010028839111,-4.4723687171936035,-0.16322040557861328
1712835421035764200,1.89476416015625,-5.24689245223999,-4.232557773590088,-0.7322776317596436
1712835421055764200,1.91476416015625,-3.2683229446411133,-6.776047706604004,-0.5433269739151001
1712835421075764200,1.93476416015625,-2.771967887878418,-6.031001091003418,-2.564846992492676
1712835421095764200,1.95476416015625,-0.8974761962890625,-3.3982701301574707,-3.5486245155334473
1712835421115764200,1.97476416015625,-0.7335729598999023,-3.5459647178649902,-4.076999664306641
1712835421135764500,1.994764404296875,-2.909935474395752,-4.6509199142456055,-4.031991004943848
1712835421155764500,2.014764404296875,-0.7474889755249023,-5.082892894744873,-2.6703312397003174
1712835421175764500,2.034764404296875,-1.2296757698059082,-3.6881256103515625,0.5684621334075928
1712835421195764500,2.054764404296875,-0.2242755889892578,-1.1194658279418945,2.9347681999206543
1712835421215764500,2.074764404296875,0.8747501373291016,-0.8054122924804688,4.787912845611572
1712835421235764200,2.09476416015625,2.7455954551696777,1.4866437911987305,7.0337724685668945
1712835421255764200,2.11476416015625,1.1386570930480957,3.882625102996826,7.769726753234863
1712835421275764200,2.13476416015625,-2.354250431060791,4.3462982177734375,10.715385437011719
1712835421295764200,2.15476416015625,0.8090908527374268,3.1982316970825195,9.336433410644531
1712835421315764200,2.17476416015625,8.55113410949707,1.5450525283813477,7.706020355224609
1712835421335764200,2.19476416015625,5.3324666023254395,1.4791851043701172,3.8889708518981934
1712835421355764200,2.21476416015625,2.2202112674713135,2.842571258544922,-1.4693195819854736
1712835421375764200,2.23476416015625,1.101226806640625,1.2064886093139648,-3.523806095123291
1712835421395764200,2.25476416015625,-0.31131935119628906,-0.21473026275634766,-3.209629774093628
1712835421415764200,2.27476416015625,-0.42452239990234375,-0.4351997375488281,-1.8527082204818726
1712835421435764200,2.29476416015625,-0.7484393119812012,-0.3203568458557129,-1.6303502321243286
1712835421455764200,2.31476416015625,0.46265172958374023,-2.560739040374756,-1.1779924631118774
1712835421475764200,2.33476416015625,-0.022287845611572266,-3.5695462226867676,-1.1968976259231567
1712835421495764200,2.35476416015625,-1.2798738479614258,-3.2689919471740723,-1.5747467279434204
1712835421515764200,2.37476416015625,-3.544254779815674,-1.053459644317627,-2.337301015853882
1712835421535764200,2.39476416015625,-6.604704856872559,1.4139084815979004,-3.8849005699157715
1712835421555764200,2.41476416015625,-8.701825141906738,2.330631732940674,-3.879828929901123
1712835421575764200,2.43476416015625,-8.992114067077637,1.0485143661499023,-1.5881917476654053
1712835421595764200,2.45476416015625,-8.93637752532959,1.0485262870788574,-1.8176333904266357
1712835421615764200,2.47476416015625,-5.956501007080078,-1.9152631759643555,2.7775018215179443
1712835421635764500,2.494764404296875,-5.386712074279785,-2.980508327484131,2.693843126296997
1712835421655764500,2.514764404296875,-5.7091193199157715,-2.516061305999756,2.069852113723755
1712835421675764500,2.534764404296875,-5.424757480621338,-2.6486124992370605,1.8700735569000244
1712835421695764500,2.554764404296875,-3.824326515197754,-0.4788346290588379,-2.654298782348633
1712835421715764500,2.574764404296875,-3.3581314086914062,-0.6315388679504395,-2.9655284881591797
1712835421735764200,2.59476416015625,-1.2684581279754639,3.8093013763427734,-6.494056701660156
1712835421755764200,2.61476416015625,-1.8017629384994507,3.764524459838867,-8.18995189666748
1712835421775764200,2.63476416015625,-4.8815813064575195,6.843353271484375,-5.491078853607178
1712835421795764200,2.65476416015625,-4.395194053649902,8.696431159973145,-0.9246983528137207
1712835421815764200,2.67476416015625,-3.441218614578247,8.55183219909668,-0.8177356719970703
1712835421835764200,2.69476416015625,-2.8382279872894287,5.2230224609375,14.20083999633789
1712835421855764200,2.71476416015625,-2.3201546669006348,3.562687873840332,20.09927749633789
1712835421875764200,2.73476416015625,-1.7665283679962158,3.0595626831054688,17.18223762512207
1712835421895764200,2.75476416015625,-0.6102721691131592,3.1911449432373047,12.419364929199219
1712835421915764200,2.77476416015625,3.8411388397216797,2.4488115310668945,6.640398025512695
1712835421935764200,2.79476416015625,6.961394786834717,2.0392818450927734,1.0070991516113281
1712835421955764200,2.81476416015625,5.214179515838623,2.5066967010498047,-2.9996776580810547
1712835421975764200,2.83476416015625,0.97013920545578,3.3876209259033203,-3.6582932472229004
1712835421995764200,2.85476416015625,-2.3279194831848145,2.2970237731933594,-2.8173182010650635
1712835422015764200,2.87476416015625,-2.430128812789917,0.9369697570800781,-2.889630079269409
1712835422035764200,2.89476416015625,-2.5910041332244873,0.9902248382568359,-3.0054714679718018
1712835422055764200,2.91476416015625,-2.018972396850586,-0.021448135375976562,-1.6113307476043701
1712835422075764200,2.93476416015625,-1.2138333320617676,-0.6593976020812988,0.6154885292053223
1712835422095764200,2.95476416015625,-0.18872219324111938,-1.4233198165893555,2.176814556121826
1712835422115764200,2.97476416015625,-0.24951624870300293,-1.4071331024169922,2.143404960632324
1712835422135764500,2.994764404296875,-0.3727405071258545,-1.2992820739746094,1.7048039436340332
1712835422155764500,3.014764404296875,-1.132723331451416,-0.49838685989379883,0.3122429847717285
1712835422175764500,3.034764404296875,-1.4193346500396729,-0.3648867607116699,-0.550959587097168
1712835422195764500,3.054764404296875,-0.9472852349281311,-0.6846890449523926,-1.240309715270996
1712835422215764500,3.074764404296875,-0.7330725789070129,-0.9497370719909668,-1.1646113395690918
1712835422235764200,3.09476416015625,-0.6322025656700134,-1.2411627769470215,-0.9162383079528809
1712835422255764200,3.11476416015625,-0.4773699939250946,-1.0574836730957031,-0.8616771697998047
1712835422275764200,3.13476416015625,-0.3953597843647003,-0.6931972503662109,-0.8524622917175293
1712835422295764200,3.15476416015625,-0.3394681215286255,-0.7407636642456055,-0.7776012420654297
1712835422315764200,3.17476416015625,-0.6298474669456482,-1.3185033798217773,-0.4292573928833008
1712835422335764200,3.19476416015625,-0.5494099855422974,-1.3827276229858398,-0.3208146095275879
1712835422355764200,3.21476416015625,-0.5474786758422852,-1.9701485633850098,-0.6881036758422852
1712835422375764200,3.23476416015625,-0.4625350832939148,-2.0465445518493652,-0.5477323532104492
1712835422395764200,3.25476416015625,-0.8342587947845459,-2.510538101196289,-1.0682954788208008
1712835422415764200,3.27476416015625,-0.7263140082359314,-2.595767021179199,-0.8921761512756348
1712835422435764200,3.29476416015625,-0.34904956817626953,-2.6599063873291016,-1.078888177871704
1712835422455764200,3.31476416015625,0.1225619912147522,-2.6431174278259277,-1.1016149520874023
1712835422475764200,3.33476416015625,-0.5175020694732666,-2.1948862075805664,-0.981781005859375
1712835422495764200,3.35476416015625,-0.7491326332092285,-0.6502513885498047,0.8986551761627197
1712835422515764200,3.37476416015625,-1.7528467178344727,2.5917816162109375,2.4346213340759277
1712835422535764200,3.39476416015625,-1.6614271402359009,2.535907745361328,2.641920328140259
1712835422555764200,3.41476416015625,4.193535804748535,4.656347274780273,9.061599731445312
1712835422575764200,3.43476416015625,3.987913131713867,4.609955787658691,9.129422187805176
1712835422595764200,3.45476416015625,6.211725234985352,3.8361921310424805,11.607151985168457
1712835422615764200,3.47476416015625,0.17009149491786957,6.673614501953125,7.88234806060791
1712835422635764500,3.494764404296875,-2.950165033340454,8.791523933410645,0.9624912738800049
1712835422655764500,3.514764404296875,-5.609608173370361,7.7555646896362305,-2.7872467041015625
1712835422675764500,3.534764404296875,-3.222184181213379,4.889245986938477,-3.0157358646392822
1712835422695764500,3.554764404296875,-3.8197245597839355,5.05332088470459,-3.1131417751312256
1712835422715764500,3.574764404296875,2.0802605152130127,3.837118148803711,0.8384811878204346
1712835422735764200,3.59476416015625,-1.6445035934448242,-1.385666847229004,-6.5476579666137695
1712835422755764200,3.61476416015625,-2.074528694152832,-1.2796363830566406,-6.336032390594482
1712835422775764200,3.63476416015625,-8.096883773803711,1.1126070022583008,-9.454936981201172
1712835422795764200,3.65476416015625,-5.433110237121582,-1.897761344909668,0.7674932479858398
1712835422815764200,3.67476416015625,-3.8709092140197754,-4.164764404296875,4.894432067871094
1712835422835764200,3.69476416015625,-3.9422526359558105,-4.05827522277832,4.7464118003845215
1712835422855764200,3.71476416015625,-4.4488844871521,-3.4562439918518066,1.1610157489776611
1712835422875764200,3.73476416015625,-4.577416896820068,-3.419741153717041,1.2462785243988037
1712835422895764200,3.75476416015625,-5.335709571838379,-1.8953056335449219,-4.653541564941406
1712835422915764200,3.77476416015625,-4.845126628875732,-2.007556438446045,-6.164390563964844
1712835422935764200,3.79476416015625,-4.557661056518555,-2.0883936882019043,-6.447635173797607
1712835422955764200,3.81476416015625,-3.96132755279541,-0.9932003021240234,-6.29078483581543
1712835422975764200,3.83476416015625,-2.9517836570739746,0.2749814987182617,-5.914307594299316
1712835422995764200,3.85476416015625,-0.7474310398101807,1.9301118850708008,-6.65688419342041
1712835423015764200,3.87476416015625,-1.0510913133621216,2.7971363067626953,-8.32461166381836
1712835423035764200,3.89476416015625,-2.879356861114502,4.914796829223633,-8.807785034179688
1712835423055764200,3.91476416015625,-5.969067573547363,6.316150665283203,-5.1845245361328125
1712835423075764200,3.93476416015625,-4.248447418212891,4.008238792419434,-1.0683839321136475
1712835423095764200,3.95476416015625,-1.1970654726028442,2.0473546981811523,4.087878227233887
1712835423115764200,3.97476416015625,-0.47940295934677124,1.9747953414916992,4.3633880615234375
1712835423135764500,3.994764404296875,-3.271589756011963,0.9593172073364258,14.755084037780762
1712835423155764500,4.014764404296875,-6.648061275482178,2.296627998352051,11.987126350402832
1712835423175764500,4.034764404296875,-1.3627581596374512,0.5694112777709961,8.20439338684082
1712835423195764500,4.054764404296875,5.109458923339844,1.2476091384887695,5.276752471923828
1712835423215731200,4.074731201171875,6.1111836433410645,2.1411590576171875,1.0397441387176514
1712835423235697700,4.09469775390625,5.813257217407227,2.1557912826538086,0.8567070960998535
1712835423255664000,4.1146640625,0.2368713617324829,2.3744754791259766,-2.9777073860168457
1712835423275630800,4.134630859375,-1.7505998611450195,1.1384973526000977,-3.0824379920959473
1712835423295597600,4.15459765625,-1.9379810094833374,1.1691226959228516,-3.1925745010375977
1712835423315564300,4.174564208984375,-1.8446600437164307,-0.34636974334716797,-3.1090445518493652
1712835423335531000,4.194531005859375,-2.4721760749816895,-1.3367352485656738,-0.46653318405151367
1712835423355498000,4.214498046875,-2.2252438068389893,-1.0402040481567383,1.09489107131958
1712835423375464400,4.23446435546875,-1.148899793624878,-1.3415379524230957,1.8183164596557617
1712835423395431200,4.25443115234375,-1.1815683841705322,-1.3308777809143066,1.7930407524108887
1712835423415398000,4.27439794921875,-0.4543880820274353,-1.960096836090088,1.3338713645935059
1712835423435364600,4.294364501953125,-0.5825147032737732,-1.9924712181091309,1.369955062866211
1712835423455331300,4.314331298828125,-0.8109402060508728,-1.366220474243164,-0.6918735504150391
1712835423475297800,4.3342978515625,-1.230721116065979,-1.277430534362793,-1.579549789428711
1712835423495264800,4.3542646484375,-1.2921321392059326,-1.3453454971313477,-1.4571080207824707
1712835423515231500,4.3742314453125,-1.2317898273468018,-2.2993922233581543,-1.6049516201019287
1712835423535198200,4.3941982421875,-1.1376365423202515,-2.8131375312805176,-1.0692241191864014
1712835423555165000,4.4141650390625,-0.836068868637085,-3.0488638877868652,-0.5700747966766357
1712835423575131400,4.43413134765625,-0.7033485174179077,-2.8615927696228027,0.19468235969543457
1712835423595098000,4.45409814453125,-0.3419634699821472,-3.0007920265197754,0.9280564785003662
1712835423615064800,4.47406494140625,-0.24822980165481567,-3.0829997062683105,1.1801719665527344
1712835423635031600,4.494031494140625,-0.756912350654602,2.7335548400878906,2.292219400405884
1712835423654998300,4.513998291015625,-2.170158863067627,5.977778434753418,4.660495758056641
1712835423674964700,4.53396484375,2.0607528686523438,3.410858154296875,6.392916679382324
1712835423694931500,4.553931396484375,5.105165004730225,3.0805301666259766,9.402095794677734
1712835423714898200,4.573898193359375,3.3311452865600586,4.78839111328125,10.651873588562012
1712835423734864600,4.59386474609375,0.4310019016265869,5.911017417907715,8.777362823486328
1712835423754831400,4.613831298828125,-2.9886224269866943,6.935803413391113,4.30527400970459
1712835423774797800,4.6337978515625,-5.305386066436768,7.173273086547852,-0.6514134407043457
1712835423794764500,4.6537646484375,-2.2409963607788086,6.750923156738281,-2.9591712951660156
1712835423814764500,4.6737646484375,4.738289833068848,3.998379707336426,-3.7765285968780518
1712835423834764500,4.6937646484375,4.003501892089844,4.143178939819336,-3.682506799697876
1712835423854764800,4.713764892578125,-6.281245231628418,-0.4679880142211914,-9.480958938598633
1712835423874764800,4.733764892578125,-10.153017044067383,-1.4700636863708496,-6.973198890686035
1712835423894764800,4.753764892578125,-6.791659355163574,-1.8210692405700684,-2.253183364868164
1712835423914764800,4.773764892578125,-3.499629020690918,-3.133212089538574,1.5001411437988281
1712835423934764800,4.793764892578125,-1.9297959804534912,-4.730038642883301,2.720113515853882
1712835423954764500,4.8137646484375,-2.9169766902923584,-3.2638368606567383,1.387282133102417
1712835423974764500,4.8337646484375,-4.1423444747924805,-1.3313298225402832,-0.5770835876464844
1712835423994764800,4.853764892578125,-4.9046711921691895,-1.973978042602539,-1.74833083152771
1712835424014764800,4.873764892578125,-5.306908130645752,-2.3639678955078125,-2.433912515640259
1712835424034764800,4.893764892578125,-4.881071090698242,-2.064877510070801,-3.226412534713745
1712835424054764800,4.913764892578125,-4.609515190124512,-2.058391571044922,-3.9760708808898926
1712835424074764800,4.933764892578125,-3.8038313388824463,-2.196098804473877,-4.938935279846191
1712835424094764500,4.9537646484375,-2.8801169395446777,-1.9035658836364746,-6.697768211364746
1712835424114764500,4.9737646484375,-2.9756903648376465,-0.09729290008544922,-8.573406219482422
1712835424134764500,4.9937646484375,-2.3534164428710938,-0.16649818420410156,-8.764827728271484
1712835424154764500,5.0137646484375,-1.5447816848754883,1.2689342498779297,-9.250112533569336
1712835424174764500,5.0337646484375,-0.40876272320747375,3.5022497177124023,-9.143319129943848
1712835424194764500,5.0537646484375,-4.305708408355713,4.950076103210449,-3.6091184616088867
1712835424214764500,5.0737646484375,-6.36057186126709,6.505979537963867,11.140755653381348
1712835424234764500,5.0937646484375,-1.9178285598754883,3.947262763977051,21.501676559448242
1712835424254764500,5.1137646484375,1.5589265823364258,0.3379535675048828,18.386606216430664
1712835424274764500,5.1337646484375,1.796626091003418,0.4144248962402344,18.34097671508789
1712835424294764500,5.1537646484375,0.3130629062652588,4.329134941101074,6.562212944030762
1712835424314764500,5.1737646484375,2.3927299976348877,3.699681282043457,-0.9867134094238281
1712835424334764500,5.1937646484375,1.7706284523010254,3.124091148376465,-4.640197277069092
1712835424354764800,5.213764892578125,0.5772916078567505,1.304861068725586,-4.11281156539917
1712835424374764800,5.233764892578125,0.42915451526641846,1.3621606826782227,-4.28510046005249
1712835424394764800,5.253764892578125,1.0835434198379517,-1.234611988067627,-0.7622189521789551
1712835424414764800,5.273764892578125,0.422779381275177,-2.032935619354248,-0.8944611549377441
1712835424434764800,5.293764892578125,-1.869302749633789,-2.0590367317199707,-1.9128608703613281
1712835424454764500,5.3137646484375,-2.79742169380188,-1.8668365478515625,-2.540407180786133
1712835424474764500,5.3337646484375,-2.3495259284973145,-1.9799633026123047,-1.7513771057128906
1712835424494764800,5.353764892578125,-1.6563379764556885,-2.310091495513916,-0.8332409858703613
1712835424514764800,5.373764892578125,-1.165914535522461,-2.4141640663146973,0.26343774795532227
1712835424534764800,5.393764892578125,-0.9435756206512451,-2.293332099914551,0.6193408966064453
1712835424554764800,5.413764892578125,-1.0220975875854492,-2.1081719398498535,-0.2998199462890625
1712835424574764800,5.433764892578125,-1.001829981803894,-1.8450875282287598,-1.3425686359405518
1712835424594764500,5.4537646484375,-1.0227546691894531,-1.5599803924560547,-1.5644712448120117
1712835424614764500,5.4737646484375,-0.8703206777572632,-1.6157660484313965,-1.5780484676361084
1712835424634764500,5.4937646484375,-0.5623477697372437,-1.437666893005371,-1.5372984409332275
1712835424654764500,5.5137646484375,-0.49242669343948364,-0.8031597137451172,-1.3907129764556885
1712835424674764500,5.5337646484375,-0.4017428159713745,-0.9060430526733398,-1.1698267459869385
1712835424694764500,5.5537646484375,-0.441214919090271,-1.6282401084899902,-0.8346388339996338
1712835424714764500,5.5737646484375,-0.41053318977355957,-0.7873773574829102,0.8196041584014893
1712835424734764500,5.5937646484375,-1.650625467300415,1.578897476196289,2.8668906688690186
1712835424754764500,5.6137646484375,-1.5022103786468506,3.7875232696533203,6.0143141746521
1712835424774764500,5.6337646484375,1.4882359504699707,4.417181968688965,9.311540603637695
1712835424794764500,5.6537646484375,3.924379348754883,5.029008865356445,10.21815299987793
1712835424814764500,5.6737646484375,3.626629114151001,5.026262283325195,10.142210006713867
1712835424834764500,5.6937646484375,0.6678811311721802,6.3962907791137695,8.073806762695312
1712835424854764800,5.713764892578125,0.17067162692546844,6.479357719421387,7.854178428649902
1712835424874764800,5.733764892578125,-3.3292462825775146,5.439440727233887,-1.2515344619750977
1712835424894764800,5.753764892578125,-1.7757402658462524,4.310951232910156,-2.2571325302124023
1712835424914764800,5.773764892578125,-2.26932954788208,4.453676223754883,-2.38787841796875
1712835424934764800,5.793764892578125,-2.8324668407440186,-0.364349365234375,-4.214687824249268
1712835424954764500,5.8137646484375,4.773386001586914,0.011518478393554688,-3.668557643890381
1712835424974764500,5.8337646484375,4.104697227478027,0.14751148223876953,-3.454030990600586
1712835424994764800,5.853764892578125,3.344440460205078,-3.756216526031494,-6.216410160064697
1712835425014764800,5.873764892578125,-2.708176612854004,-5.464763641357422,-8.482462882995605
1712835425034764800,5.893764892578125,-7.816415786743164,-0.09578132629394531,-9.378536224365234
1712835425054764800,5.913764892578125,-5.725464820861816,-3.662869453430176,1.4822638034820557
1712835425074764800,5.933764892578125,-5.22624397277832,-4.449481010437012,3.6171185970306396
1712835425094764500,5.9537646484375,-6.335414409637451,-3.5097060203552246,1.5764899253845215
1712835425114764500,5.9737646484375,-6.663372993469238,-2.4880566596984863,-0.4932107925415039
1712835425134764500,5.9937646484375,-5.976737976074219,-2.663691520690918,-1.8918249607086182
1712835425154764500,6.0137646484375,-5.299014091491699,-2.272818088531494,-2.8206796646118164
1712835425174764500,6.0337646484375,-4.927676200866699,-2.375797748565674,-2.9538350105285645
1712835425194764500,6.0537646484375,-3.2659788131713867,-1.3133578300476074,-4.583005428314209
1712835425214764500,6.0737646484375,-2.8754501342773438,0.7016811370849609,-6.523672103881836
1712835425234764500,6.0937646484375,-1.9981474876403809,4.518104553222656,-8.478324890136719
1712835425254764500,6.1137646484375,-3.035494804382324,7.81846809387207,-8.194831848144531
1712835425274764500,6.1337646484375,-2.2239365577697754,7.675171852111816,-7.9567975997924805
1712835425294764500,6.1537646484375,-3.4051523208618164,2.668087959289551,3.7998194694519043
1712835425314764500,6.1737646484375,-1.2543400526046753,2.687361717224121,17.439043045043945
1712835425334764500,6.1937646484375,-0.539320707321167,1.6272974014282227,20.284337997436523
1712835425354764800,6.213764892578125,-0.19106626510620117,1.7026786804199219,20.3206787109375
1712835425374764800,6.233764892578125,0.08532977104187012,3.114190101623535,5.598685264587402
1712835425394764800,6.253764892578125,4.268711090087891,3.037896156311035,3.002645254135132
1712835425414764800,6.273764892578125,5.863205909729004,3.446566581726074,-1.6379691362380981
1712835425434764800,6.293764892578125,5.57942008972168,3.433478355407715,-1.7811247110366821
1712835425454764500,6.3137646484375,-0.9675527811050415,1.3974485397338867,-2.4892349243164062
1712835425474764500,6.3337646484375,-2.1431241035461426,-0.8603191375732422,-0.6704256534576416
1712835425494764800,6.353764892578125,-2.2779173851013184,-0.8553009033203125,-0.7356269359588623
1712835425514764800,6.373764892578125,-3.010410785675049,-2.6360859870910645,0.07323312759399414
1712835425534764800,6.393764892578125,-3.043483257293701,-2.096985340118408,0.47743797302246094
1712835425554764800,6.413764892578125,-2.2662172317504883,-1.5905990600585938,0.9484150409698486
1712835425574764800,6.433764892578125,-2.293813705444336,-1.572718620300293,0.8998382091522217
1712835425594764500,6.4537646484375,-0.9891555309295654,-1.8564457893371582,2.7714574337005615
1712835425614764500,6.4737646484375,-0.9566529989242554,-1.8960866928100586,2.5571022033691406
1712835425634764500,6.4937646484375,-0.5624184608459473,-1.706423282623291,1.3034884929656982
1712835425654764500,6.5137646484375,-0.6100162267684937,-1.67234468460083,0.08572936058044434
1712835425674764500,6.5337646484375,-0.40879273414611816,-2.212444305419922,-0.6208219528198242
1712835425694764500,6.5537646484375,-0.4159787893295288,-2.920767307281494,-1.056837797164917
1712835425714764500,6.5737646484375,-0.5516645312309265,-3.2651658058166504,-1.2863996028900146
1712835425734764500,6.5937646484375,-0.34101295471191406,-3.210801601409912,-1.7156472206115723
1712835425754764500,6.6137646484375,0.15407991409301758,-3.024829387664795,-1.3319978713989258
1712835425774764500,6.6337646484375,0.2717062830924988,-2.495422840118408,-1.1565485000610352
1712835425794764500,6.6537646484375,-0.005915641784667969,0.9716062545776367,0.4209299087524414
1712835425814764500,6.6737646484375,-1.473129153251648,6.688528060913086,4.103374481201172
1712835425834764500,6.6937646484375,-0.6748064756393433,6.245965957641602,7.6300506591796875
1712835425854764800,6.713764892578125,5.06976318359375,4.563676834106445,10.33326530456543
1712835425874764800,6.733764892578125,5.982205390930176,4.321443557739258,10.148273468017578
1712835425894764800,6.753764892578125,2.1754260063171387,4.989429473876953,7.371336936950684
1712835425914764800,6.773764892578125,-1.4258670806884766,6.255505561828613,2.758418321609497
1712835425934764800,6.793764892578125,-3.147876262664795,6.2992095947265625,-2.9057061672210693
1712835425954764500,6.8137646484375,-2.3047397136688232,3.6528358459472656,-5.290771007537842
1712835425974764500,6.8337646484375,-2.790756940841675,0.5251178741455078,-4.081730365753174
1712835425994764800,6.853764892578125,-1.9505219459533691,-0.8854789733886719,-3.796454668045044
1712835426014764800,6.873764892578125,2.039095401763916,-0.40590763092041016,-2.7086195945739746
1712835426034764800,6.893764892578125,3.2988202571868896,-1.1405811309814453,-3.7551023960113525
1712835426054764800,6.913764892578125,-0.9448680877685547,-2.600963592529297,-6.014832496643066
1712835426074764800,6.933764892578125,-1.2735605239868164,-2.5812273025512695,-5.667001724243164
1712835426094764500,6.9537646484375,-7.783534049987793,-0.9127655029296875,-6.3555803298950195
1712835426114764500,6.9737646484375,-7.865962982177734,-0.9002227783203125,-6.2667999267578125
1712835426134764500,6.9937646484375,-4.316948890686035,-4.259440898895264,3.564028263092041
1712835426154764500,7.0137646484375,-4.286835670471191,-4.249344348907471,3.48077130317688
1712835426174764500,7.0337646484375,-4.174842357635498,-4.010456562042236,3.555274486541748
1712835426194764500,7.0537646484375,-6.262270927429199,-1.746382713317871,-0.022161483764648438
1712835426214764500,7.0737646484375,-5.55498743057251,-1.4513797760009766,-1.2396302223205566
1712835426234764500,7.0937646484375,-4.517521858215332,-0.8772726058959961,-2.944167375564575
1712835426254764500,7.1137646484375,-3.488487482070923,0.2371826171875,-5.713251113891602
1712835426274764500,7.1337646484375,-2.1710939407348633,0.9875097274780273,-8.671252250671387
1712835426294764500,7.1537646484375,-2.129683494567871,4.432245254516602,-9.67929458618164
1712835426314764500,7.1737646484375,-1.3676996231079102,4.356975555419922,-9.7647123336792
1712835426334764500,7.1937646484375,-0.295829176902771,3.7766056060791016,-3.3308308124542236
1712835426354764800,7.213764892578125,-0.18197596073150635,2.7321271896362305,4.514922618865967
1712835426374764800,7.233764892578125,0.2962757349014282,0.24910831451416016,13.797063827514648
1712835426394764800,7.253764892578125,-0.8071438074111938,0.6705970764160156,18.860973358154297
1712835426414764800,7.273764892578125,-3.031848430633545,2.9623193740844727,12.54827880859375
1712835426434764800,7.293764892578125,0.11637330055236816,2.4912843704223633,4.420204162597656
1712835426454764500,7.3137646484375,4.552920341491699,2.658632278442383,0.7919778823852539
1712835426474764500,7.3337646484375,6.469374179840088,2.0781068801879883,-3.10087513923645
1712835426494764800,7.353764892578125,4.140565872192383,1.9287185668945312,-4.428231239318848
1712835426514764800,7.373764892578125,0.849765956401825,0.7717342376708984,-2.8950610160827637
1712835426534764800,7.393764892578125,-0.18002629280090332,-1.0089287757873535,-1.664933681488037
1712835426554764800,7.413764892578125,-0.3083014488220215,-1.981245517730713,-1.4665095806121826
1712835426574764800,7.433764892578125,-1.3920278549194336,-2.1465086936950684,-2.0317776203155518
1712835426594764500,7.4537646484375,-2.7351558208465576,-2.0482492446899414,-1.945404291152954
1712835426614764500,7.4737646484375,-2.796330451965332,-2.0188169479370117,-2.02050518989563
1712835426634764500,7.4937646484375,-1.7349913120269775,-1.675680160522461,0.5019135475158691
1712835426654764500,7.5137646484375,-0.9169999361038208,-1.5838747024536133,2.1093807220458984
1712835426674764500,7.5337646484375,-0.7206698656082153,-1.5788049697875977,2.5890021324157715
1712835426694764500,7.5537646484375,-0.9292126893997192,-1.4775810241699219,1.9162793159484863
1712835426714764500,7.5737646484375,-0.9640378952026367,-1.5025286674499512,1.0285606384277344
1712835426734764500,7.5937646484375,-0.8484624624252319,-1.659536361694336,0.4370386600494385
1712835426754764500,7.6137646484375,-0.7005571126937866,-1.9973111152648926,-0.04686236381530762
1712835426774764500,7.6337646484375,-0.4457853436470032,-2.1291656494140625,-0.4034891128540039
1712835426794764500,7.6537646484375,0.038074612617492676,-2.2437620162963867,-0.6840670108795166
1712835426814764500,7.6737646484375,-0.09946513175964355,-2.288015842437744,-0.8796815872192383
1712835426834764500,7.6937646484375,0.015209555625915527,-1.7479825019836426,-0.6012725830078125
1712835426854764800,7.713764892578125,-0.3351764678955078,1.5036935806274414,0.8910207748413086
1712835426874764800,7.733764892578125,-0.8084347248077393,4.976666450500488,3.0342657566070557
1712835426894764800,7.753764892578125,1.3252888917922974,5.120566368103027,5.126876354217529
1712835426914764800,7.773764892578125,3.266326427459717,4.794956207275391,7.151988983154297
1712835426934764800,7.793764892578125,3.8996291160583496,3.7379236221313477,9.358860969543457
1712835426954764500,7.8137646484375,2.708153486251831,3.9622745513916016,9.930021286010742
1712835426974764500,7.8337646484375,-0.49332594871520996,4.8111162185668945,6.487946510314941
1712835426994764800,7.853764892578125,-2.9527645111083984,7.103701591491699,0.9657270908355713
1712835427014764800,7.873764892578125,-4.547318458557129,4.745872497558594,-5.284877300262451
1712835427034764800,7.893764892578125,-0.9293848276138306,2.7227773666381836,-4.830760955810547
1712835427054764800,7.913764892578125,5.4697160720825195,1.6586341857910156,-2.8630120754241943
1712835427074764800,7.933764892578125,1.6795806884765625,-2.0428619384765625,-5.594081878662109
1712835427094764500,7.9537646484375,-4.866156578063965,-3.6247363090515137,-9.239710807800293
1712835427114764500,7.9737646484375,-7.474819660186768,-3.183598041534424,-8.792177200317383
1712835427134764500,7.9937646484375,-4.919519901275635,-2.6185803413391113,-5.158880233764648
1712835427154764500,8.0137646484375,-3.2506136894226074,-1.7174468040466309,-0.41149044036865234
1712835427174764500,8.0337646484375,-3.7825002670288086,-1.6270384788513184,1.6454355716705322
1712835427194764500,8.0537646484375,-3.7742409706115723,-1.649228572845459,1.709075927734375
1712835427214764500,8.0737646484375,-6.632261276245117,-2.352970600128174,1.3254406452178955
1712835427234764500,8.0937646484375,-6.958818435668945,-2.523970127105713,1.4070141315460205
1712835427254764500,8.1137646484375,-5.531863212585449,-2.761570930480957,0.3066446781158447
1712835427274764500,8.1337646484375,-4.594785690307617,-1.579092025756836,-1.399499535560608
1712835427294764500,8.1537646484375,-4.160429000854492,-1.6909542083740234,-1.5857146978378296
1712835427314764500,8.1737646484375,-2.126577854156494,0.1871786117553711,-6.357725143432617
1712835427334764500,8.1937646484375,-2.6675333976745605,2.056838035583496,-8.01237964630127
1712835427354764800,8.213764892578125,-2.814335346221924,5.756338119506836,-7.471095085144043
1712835427374764800,8.233764892578124,-1.2163121700286865,5.005773544311523,-4.338411331176758
1712835427394764800,8.253764892578126,1.3637032508850098,2.7346725463867188,1.5193462371826172
1712835427414764800,8.273764892578125,1.8415648937225342,0.6229362487792969,8.972195625305176
1712835427434764800,8.293764892578125,2.352555990219116,0.6381950378417969,9.096963882446289
1712835427454764500,8.3137646484375,1.3582265377044678,0.704620361328125,13.812495231628418
1712835427474764500,8.3337646484375,-0.6768932342529297,1.2923040390014648,5.267352104187012
1712835427494764800,8.353764892578125,-0.6452454328536987,1.325383186340332,5.180810451507568
1712835427514764800,8.373764892578125,2.539015531539917,1.7793750762939453,1.54172682762146
1712835427534764800,8.393764892578124,4.0559515953063965,2.3074951171875,-0.5104830265045166
1712835427554764800,8.413764892578126,1.717165470123291,1.9014863967895508,-0.6871757507324219
1712835427574764800,8.433764892578125,0.7085509896278381,0.8118476867675781,-0.5808651447296143
1712835427594764500,8.4537646484375,0.04259848594665527,-0.06507110595703125,-0.11490631103515625
1712835427614764500,8.4737646484375,-0.8958508968353271,-1.1757187843322754,-0.16552495956420898
1712835427634764500,8.4937646484375,-1.5028716325759888,-2.061739444732666,-0.48642683029174805
1712835427654764500,8.5137646484375,-1.6072090864181519,-2.035879611968994,-0.5801501274108887
1712835427674764500,8.5337646484375,-2.4338274002075195,-1.5062928199768066,0.03168535232543945
1712835427694764500,8.5537646484375,-1.737928867340088,-2.0097432136535645,0.5753238201141357
1712835427714764500,8.5737646484375,-1.0113061666488647,-2.0509371757507324,0.890059232711792
1712835427734764500,8.5937646484375,-0.7325482368469238,-1.7780747413635254,0.6321666240692139
1712835427754764500,8.6137646484375,-0.7652949094772339,-1.782167911529541,0.6350648403167725
1712835427774764500,8.6337646484375,-0.3240697979927063,-2.1996254920959473,-0.7413907051086426
1712835427794764500,8.6537646484375,-0.33841192722320557,-2.218989849090576,-0.6991629600524902
1712835427814764500,8.6737646484375,-0.40295594930648804,-2.185532569885254,-1.129357099533081
1712835427834764500,8.6937646484375,-0.6042816638946533,-1.8512458801269531,-1.3073999881744385
1712835427854764800,8.713764892578125,-0.6718164086341858,-1.5204968452453613,-1.4292817115783691
1712835427874764800,8.733764892578124,-0.8095865249633789,-1.9249072074890137,-0.5940871238708496
1712835427894764800,8.753764892578126,-0.3829162120819092,-0.6118268966674805,0.36370062828063965
1712835427914764800,8.773764892578125,-0.21929478645324707,2.3265905380249023,1.494002103805542
1712835427934764800,8.793764892578125,0.27151477336883545,3.419443130493164,3.026939868927002
1712835427954764500,8.8137646484375,2.586519718170166,4.1247453689575195,5.286351680755615
1712835427974764500,8.8337646484375,4.468703269958496,4.174361228942871,8.540922164916992
1712835427994764800,8.853764892578125,4.6861090660095215,4.236678123474121,9.803844451904297
1712835428014764800,8.873764892578125,1.6303776502609253,5.126350402832031,6.767148017883301
1712835428034764800,8.893764892578124,-1.0227371454238892,4.883502960205078,1.7571792602539062
1712835428054764800,8.913764892578126,-1.5571109056472778,4.951930999755859,1.7019052505493164
1712835428074764800,8.933764892578125,-3.100858211517334,3.5246477127075195,-3.6879191398620605
1712835428094764500,8.9537646484375,2.5015339851379395,3.6190366744995117,0.3671443462371826
1712835428114764500,8.9737646484375,1.8249471187591553,3.774847984313965,0.48610806465148926
1712835428134764500,8.9937646484375,4.856713771820068,1.0118656158447266,-2.214113235473633
1712835428154764500,9.0137646484375,-6.150067329406738,-1.4961328506469727,-7.761743545532227
1712835428174764500,9.0337646484375,-8.696941375732422,0.9886903762817383,-6.7056684494018555
1712835428194764500,9.0537646484375,-7.613936424255371,-1.979599952697754,-1.5117673873901367
1712835428214764500,9.0737646484375,-7.725536346435547,-1.8933448791503906,-1.6278038024902344
1712835428234764500,9.0937646484375,-6.157569408416748,-3.476592540740967,2.6411118507385254
1712835428254764500,9.1137646484375,-4.958740234375,-3.0105977058410645,2.462010383605957
1712835428274764500,9.1337646484375,-6.055120944976807,-2.428483486175537,0.3957843780517578
1712835428294764500,9.1537646484375,-5.786264419555664,-1.4938244819641113,-1.528541922569275
1712835428314764500,9.1737646484375,-5.575864791870117,-1.6034274101257324,-1.5107132196426392
1712835428334764500,9.1937646484375,-3.878596305847168,-1.3422675132751465,-4.018375396728516
1712835428354764800,9.213764892578125,-3.3152754306793213,-0.9546699523925781,-4.374622821807861
1712835428374764800,9.233764892578124,-1.9337294101715088,0.6850042343139648,-5.7676849365234375
1712835428394764800,9.253764892578126,-1.4213414192199707,1.538248062133789,-8.021738052368164
1712835428414764800,9.273764892578125,-2.8032820224761963,2.7012062072753906,-8.566497802734375
1712835428434764800,9.293764892578125,-4.220784664154053,5.149328231811523,-7.120265960693359
1712835428454764500,9.3137646484375,-4.305584907531738,2.0516815185546875,-3.9345507621765137
1712835428474764500,9.3337646484375,-3.516171455383301,1.9861783981323242,-3.5780696868896484
1712835428494764800,9.353764892578125,-2.9549779891967773,2.121077537536621,5.272252559661865
1712835428514764800,9.373764892578125,-0.49276113510131836,3.999342918395996,19.132081985473633
1712835428534764800,9.393764892578124,2.0496370792388916,1.5422401428222656,9.231945037841797
1712835428554764800,9.413764892578126,1.954625129699707,1.9531927108764648,5.0819196701049805
1712835428574764800,9.433764892578125,2.940551996231079,2.798274040222168,2.830378770828247
1712835428594764500,9.4537646484375,2.979872941970825,3.423755645751953,0.46004414558410645
1712835428614764500,9.4737646484375,2.850588798522949,3.4495038986206055,0.23374152183532715
1712835428634764500,9.4937646484375,0.9164242744445801,1.0419950485229492,-1.2494409084320068
1712835428654764500,9.5137646484375,0.7504878044128418,1.0647668838500977,-1.4447312355041504
1712835428674764500,9.5337646484375,-0.5878177881240845,0.2911491394042969,-1.1891618967056274
1712835428694764500,9.5537646484375,-2.4659922122955322,-1.3513379096984863,-1.7729511260986328
1712835428714764500,9.5737646484375,-2.6994595527648926,-1.7223191261291504,-1.3167321681976318
1712835428734764500,9.5937646484375,-2.095886707305908,-1.8907732963562012,-0.32012128829956055
1712835428754764500,9.6137646484375,-0.36899662017822266,-1.7381362915039062,0.8510668277740479
1712835428774764500,9.6337646484375,-0.4076935052871704,-1.7403345108032227,0.841559648513794
1712835428794764500,9.6537646484375,0.43559396266937256,-1.6301851272583008,1.2168152332305908
1712835428814764500,9.6737646484375,-0.45219290256500244,-1.466869831085205,0.03146934509277344
1712835428834764500,9.6937646484375,-0.5267492532730103,-1.490522861480713,0.06819677352905273
1712835428854764800,9.713764892578125,-1.5082563161849976,-1.7312073707580566,-1.6449270248413086
1712835428874764800,9.733764892578124,-1.363095760345459,-1.8206110000610352,-1.2668700218200684
1712835428894764800,9.753764892578126,-0.7714700698852539,-2.023674964904785,-0.5362896919250488
1712835428914764800,9.773764892578125,-0.13457703590393066,-2.441044807434082,-0.15908288955688477
1712835428934764800,9.793764892578125,-0.10611438751220703,-2.487372398376465,0.003928422927856445
1712835428954764500,9.8137646484375,0.18014729022979736,0.07686805725097656,2.1477670669555664
1712835428974764500,9.8337646484375,0.16725623607635498,0.04656505584716797,2.2527074813842773
1712835428994764800,9.853764892578125,0.9549131989479065,3.34958553314209,3.788207530975342
1712835429014764800,9.873764892578125,2.8459179401397705,3.3040590286254883,5.004777908325195
1712835429034764800,9.893764892578124,4.358250617980957,2.801926612854004,6.502620220184326
1712835429054764800,9.913764892578126,3.7228376865386963,2.9984302520751953,7.154176712036133
1712835429074764800,9.933764892578125,1.3450859785079956,3.8843870162963867,5.126643180847168
1712835429094764500,9.9537646484375,0.21543681621551514,4.195028305053711,1.0748236179351807
1712835429114764500,9.9737646484375,-2.1160523891448975,4.278637886047363,-2.2229056358337402
1712835429134764500,9.9937646484375,-3.5000810623168945,2.811389923095703,-4.032182693481445
1712835429154764500,10.0137646484375,-4.032845497131348,2.923558235168457,-4.027377605438232
1712835429174764500,10.0337646484375,1.895038366317749,3.3512754440307617,-0.7949783802032471
1712835429194764500,10.0537646484375,0.40114760398864746,-0.021467208862304688,-3.703962802886963
1712835429214764500,10.0737646484375,-7.311470031738281,0.23821735382080078,-6.790092468261719
1712835429234764500,10.0937646484375,-7.445935249328613,0.27541255950927734,-6.691144943237305
1712835429254764500,10.1137646484375,-11.341789245605469,0.7137012481689453,-5.684768199920654
1712835429274764500,10.1337646484375,-4.92725133895874,-4.40273380279541,4.943298816680908
1712835429294764500,10.1537646484375,-3.1478350162506104,-4.688650131225586,4.91126823425293
1712835429314764500,10.1737646484375,-4.535552501678467,-3.691761016845703,1.8979778289794922
1712835429334764500,10.1937646484375,-6.461277961730957,-2.034742832183838,-1.552338719367981
1712835429354764800,10.213764892578125,-6.715323448181152,-0.8708596229553223,-4.147475242614746
1712835429374764800,10.233764892578124,-6.425288200378418,-0.9867310523986816,-4.208883762359619
1712835429394764800,10.253764892578126,-3.2269177436828613,0.05760383605957031,-6.6807146072387695
1712835429414764800,10.273764892578125,-1.6428062915802002,0.4657125473022461,-7.353569507598877
1712835429434764800,10.293764892578125,-0.9064731597900391,0.37054443359375,-7.6455793380737305
1712835429454764500,10.3137646484375,-1.0064923763275146,4.636425971984863,-7.560055732727051
1712835429474764500,10.3337646484375,-0.7729278802871704,1.657918930053711,-4.703082084655762
1712835429494764800,10.353764892578125,0.05366817116737366,1.5440921783447266,-4.388266563415527
1712835429514764800,10.373764892578125,-2.633456230163574,1.3076467514038086,11.598047256469727
1712835429534764800,10.393764892578124,-2.7491042613983154,1.760457992553711,15.8272705078125
1712835429554764800,10.413764892578126,-2.3309974670410156,1.8380508422851562,15.878679275512695
1712835429574764800,10.433764892578125,4.463250160217285,1.2206192016601562,6.480287075042725
1712835429594764500,10.4537646484375,7.231781482696533,2.2892322540283203,1.7517378330230713
1712835429614764500,10.4737646484375,5.715686321258545,4.477757453918457,-2.150991439819336
1712835429634764500,10.4937646484375,2.3862881660461426,3.672718048095703,-3.2957653999328613
1712835429654764500,10.5137646484375,0.12102079391479492,0.5641860961914062,-2.536857843399048
1712835429674764500,10.5337646484375,-0.047751426696777344,0.5728788375854492,-2.6604318618774414
1712835429694764500,10.5537646484375,-2.299960136413574,-1.975144863128662,-0.8325269222259521
1712835429714764500,10.5737646484375,-3.520967960357666,-1.6884779930114746,-0.3408071994781494
1712835429734764500,10.5937646484375,-2.8817806243896484,-1.0548095703125,0.22345423698425293
1712835429754764500,10.6137646484375,-0.767602801322937,-0.6176719665527344,1.4762206077575684
1712835429774764500,10.6337646484375,-0.7857531309127808,-0.6245021820068359,1.4859342575073242
1712835429794764500,10.6537646484375,0.12956392765045166,-0.6710577011108398,2.963019847869873
1712835429814764500,10.6737646484375,-0.07776474952697754,-0.5187349319458008,1.387023687362671
1712835429834764500,10.6937646484375,-0.5028978586196899,-0.3586893081665039,0.23808050155639648
1712835429854764800,10.713764892578125,-0.5342003107070923,-0.9619340896606445,-0.5839009284973145
1712835429874764800,10.733764892578124,-0.27615177631378174,-1.8231730461120605,-0.6078341007232666
1712835429894764800,10.753764892578126,-0.0538022518157959,-2.305914878845215,-0.5212490558624268
1712835429914764800,10.773764892578125,-0.004784941673278809,-2.5121850967407227,-0.4299006462097168
1712835429934764800,10.793764892578125,0.07007861137390137,-2.373230457305908,-0.03879213333129883
1712835429954764500,10.8137646484375,0.2834489345550537,-0.0056362152099609375,1.1748931407928467
1712835429974764500,10.8337646484375,-0.47668135166168213,3.9579544067382812,2.766921043395996
1712835429994764800,10.853764892578125,-0.16067135334014893,4.443622589111328,5.279657363891602
1712835430014764800,10.873764892578125,3.49363374710083,3.487767219543457,7.819361209869385
1712835430034764800,10.893764892578124,4.838394641876221,2.7545366287231445,8.201648712158203
1712835430054764800,10.913764892578126,2.725480794906616,3.7981796264648438,6.836791038513184
1712835430074764800,10.933764892578125,2.2665560245513916,3.835613250732422,6.660796165466309
1712835430094764500,10.9537646484375,-0.6539232134819031,5.069979667663574,3.5341193675994873
1712835430114764500,10.9737646484375,-2.5458617210388184,4.315651893615723,0.13202643394470215
1712835430134764500,10.9937646484375,-4.4180145263671875,3.112860679626465,-3.4827957153320312
1712835430154764500,11.0137646484375,4.784911632537842,1.7978010177612305,-0.731132984161377
1712835430174764500,11.0337646484375,1.4730727672576904,-1.7496724128723145,-3.7703938484191895
1712835430194764500,11.0537646484375,0.9541037082672119,-1.630323886871338,-3.557309150695801
1712835430214764500,11.0737646484375,-3.217787504196167,-1.876321792602539,-6.724318504333496
1712835430234764500,11.0937646484375,-7.038300514221191,-1.2655487060546875,-5.2953643798828125
1712835430254764500,11.1137646484375,-6.825267791748047,-2.999880313873291,-0.8249980211257935
1712835430274764500,11.1337646484375,-5.721513271331787,-4.021361827850342,1.7797517776489258
1712835430294764500,11.1537646484375,-5.665514945983887,-4.023255825042725,1.6999900341033936
1712835430314764500,11.1737646484375,-5.854277610778809,-3.166914463043213,1.4641337394714355
1712835430334764500,11.1937646484375,-5.802176475524902,-3.4616050720214844,-1.2139743566513062
1712835430354764800,11.213764892578125,-4.823951244354248,-2.432615280151367,-3.824004888534546
1712835430374764800,11.233764892578124,-3.4929563999176025,-0.29244136810302734,-7.167860507965088
1712835430394764800,11.253764892578126,-2.9345569610595703,-0.3831491470336914,-7.377514839172363
1712835430414764800,11.273764892578125,-1.7296602725982666,3.8260011672973633,-10.053279876708984
1712835430434764800,11.293764892578125,-0.9149426221847534,3.745436668395996,-10.114553451538086
1712835430454764500,11.3137646484375,-2.4164695739746094,6.456567764282227,-8.510183334350586
1712835430474764500,11.3337646484375,-0.4240206480026245,2.3632049560546875,6.314913272857666
1712835430494764800,11.353764892578125,0.2945992946624756,2.3614959716796875,6.682564735412598
1712835430514764800,11.373764892578125,1.3226333856582642,0.22348880767822266,16.7911376953125
1712835430534764800,11.393764892578124,-3.194330930709839,1.8266916275024414,10.96420669555664
1712835430554764800,11.413764892578126,-0.47104954719543457,2.4525156021118164,4.083774566650391
1712835430574764800,11.433764892578125,5.217433929443359,1.7255096435546875,-0.28827404975891113
1712835430594764500,11.4537646484375,6.152003765106201,2.242743492126465,-2.9527769088745117
1712835430614764500,11.4737646484375,2.8683605194091797,3.3021678924560547,-2.0677525997161865
1712835430634764500,11.4937646484375,2.6900649070739746,3.3074398040771484,-2.231276273727417
1712835430654764500,11.5137646484375,0.38900136947631836,-0.12486553192138672,-0.44641542434692383
1712835430674764500,11.5337646484375,-0.34932446479797363,-1.132491111755371,-0.39187002182006836
1712835430694764500,11.5537646484375,-1.9074925184249878,-1.5518417358398438,-0.11350297927856445
1712835430714764500,11.5737646484375,-2.354609251022339,-1.3089160919189453,0.5204019546508789
1712835430734764500,11.5937646484375,-1.7531673908233643,-1.258103847503662,0.9124290943145752
1712835430754764500,11.6137646484375,-1.015977144241333,-1.6809496879577637,1.584813117980957
1712835430774764500,11.6337646484375,-0.7928715944290161,-1.923701286315918,1.949711799621582
1712835430794764500,11.6537646484375,-0.30595695972442627,-1.741485595703125,1.3088610172271729
1712835430814764500,11.6737646484375,-0.3622194528579712,-1.7677898406982422,1.3632948398590088
1712835430834764500,11.6937646484375,0.07871460914611816,-1.2707724571228027,0.3580195903778076
1712835430854764800,11.713764892578125,-0.3509194850921631,-1.1643495559692383,-1.0217127799987793
1712835430874764800,11.733764892578124,-0.3123435974121094,-1.1983528137207031,-0.8961582183837891
1712835430894764800,11.753764892578126,-0.15038704872131348,-1.5438470840454102,-0.39364099502563477
1712835430914764800,11.773764892578125,-0.9917464256286621,0.6003227233886719,1.3936030864715576
1712835430934764800,11.793764892578125,-0.807801365852356,3.022007942199707,3.8587193489074707
1712835430954764500,11.8137646484375,1.2598809003829956,3.4518489837646484,5.376880645751953
1712835430974764500,11.8337646484375,1.17800772190094,3.4224815368652344,5.450840950012207
1712835430994764800,11.853764892578125,4.665060997009277,2.9807558059692383,8.662163734436035
1712835431014764800,11.873764892578125,3.357509136199951,3.521491050720215,9.06533145904541
1712835431034764800,11.893764892578124,0.33573445677757263,3.3756561279296875,3.91884183883667
1712835431054764800,11.913764892578126,-0.7482565641403198,4.440062522888184,-1.0464900732040405
1712835431074764800,11.933764892578125,-1.5956467390060425,4.119178771972656,-4.774511337280273
1712835431094764500,11.9537646484375,-2.0841128826141357,4.208512306213379,-4.881537437438965
1712835431114764500,11.9737646484375,7.263755798339844,2.8167648315429688,-1.0610876083374023
1712835431134764500,11.9937646484375,5.266410827636719,-3.5638723373413086,-2.1956377029418945
1712835431154764500,12.0137646484375,-3.3607029914855957,-2.9238452911376953,-5.518189907073975
1712835431174764500,12.0337646484375,-11.560619354248047,1.381932258605957,-8.367212295532227
1712835431194764500,12.0537646484375,-9.853330612182617,-2.4799880981445312,-3.758634328842163
1712835431214764500,12.0737646484375,-5.293363094329834,-4.995142936706543,3.087742567062378
1712835431234764500,12.0937646484375,-5.285749435424805,-4.938249588012695,2.9158694744110107
1712835431254764500,12.1137646484375,-4.66778564453125,-6.482327461242676,3.3088877201080322
1712835431274764500,12.1337646484375,-4.927795886993408,-1.237710952758789,-1.884087085723877
1712835431294764500,12.1537646484375,-4.604404449462891,-1.3286590576171875,-1.9167938232421875
1712835431314764500,12.1737646484375,-2.095349073410034,-0.18125343322753906,-8.682459831237793
1712835431334764500,12.1937646484375,-2.134094476699829,2.944392204284668,-9.667610168457031
1712835431354764800,12.213764892578125,-1.3664178848266602,2.8674697875976562,-9.735447883605957
1712835431374764800,12.233764892578124,-2.8967127799987793,4.047611236572266,-5.199249744415283
1712835431394764800,12.253764892578126,-2.013720750808716,2.640498161315918,0.9507575035095215
1712835431414764800,12.273764892578125,-1.2638756036758423,2.5935935974121094,1.4235095977783203
1712835431434764800,12.293764892578125,2.1767003536224365,0.015448570251464844,18.84609031677246
1712835431454764500,12.3137646484375,0.2120804786682129,1.037363052368164,12.634069442749023
1712835431474764500,12.3337646484375,-0.6842010021209717,2.481175422668457,5.372821807861328
1712835431494764800,12.353764892578125,3.5557680130004883,2.4546804428100586,2.1679627895355225
1712835431514764800,12.373764892578125,6.7081708908081055,2.29315185546875,-0.6706677675247192
1712835431534764800,12.393764892578124,3.993561267852783,2.381986618041992,-1.7505654096603394
1712835431554764800,12.413764892578126,3.809244155883789,2.378228187561035,-1.9141799211502075
1712835431574764800,12.433764892578125,-0.5767817497253418,-1.4559025764465332,-0.7232966423034668
1712835431594764500,12.4537646484375,-0.8412348031997681,-2.1008777618408203,-0.38782548904418945
1712835431614764500,12.4737646484375,-2.233792781829834,-1.832136631011963,-0.5959722995758057
1712835431634764500,12.4937646484375,-2.343413829803467,-0.9931297302246094,-0.4535200595855713
1712835431654764500,12.5137646484375,-0.7189896106719971,-0.5743808746337891,0.30237627029418945
1712835431674764500,12.5337646484375,0.0651555061340332,-0.48702144622802734,1.7903187274932861
1712835431694764500,12.5537646484375,0.02807140350341797,-0.5108613967895508,1.847193956375122
1712835431714764500,12.5737646484375,0.6569976806640625,-0.31290149688720703,0.9034452438354492
1712835431734764500,12.5937646484375,0.7574585676193237,-0.9460935592651367,0.0703742504119873
1712835431754764500,12.6137646484375,0.32125818729400635,-1.4006505012512207,-0.5153865814208984
1712835431774764500,12.6337646484375,-0.4209930896759033,-1.4990177154541016,-0.5443689823150635
1712835431794731300,12.653731201171874,-0.3950204849243164,-1.532815933227539,-0.39771366119384766
1712835431814698000,12.673697998046874,-0.20281100273132324,1.5718870162963867,1.5923702716827393
1712835431834664400,12.69366455078125,-0.014798641204833984,3.909698486328125,4.358262062072754
1712835431854631200,12.713631103515626,2.076486110687256,3.1915626525878906,7.492413520812988
1712835431874598000,12.733597900390626,3.3455591201782227,2.410736083984375,9.274125099182129
1712835431894564600,12.753564697265626,2.5170321464538574,2.168802261352539,8.072751998901367
1712835431914531300,12.77353125,-0.22020196914672852,3.016688346862793,5.077939033508301
1712835431934497800,12.793497802734375,-2.961766481399536,3.969270706176758,0.25649404525756836
1712835431954464300,12.81346435546875,-3.349564552307129,4.040566444396973,0.019896745681762695
1712835431974431000,12.833430908203125,-3.160284996032715,1.0145797729492188,-0.756523609161377
1712835431994397700,12.853397705078125,9.956363677978516,1.7601566314697266,-2.128793239593506
1712835432014364200,12.8733642578125,5.654038429260254,-3.3480353355407715,-7.624236106872559
1712835432034331000,12.893330810546875,-5.674358367919922,-1.317596435546875,-9.936702728271484
1712835432054297600,12.913297607421875,-11.136157989501953,-1.0216703414916992,-7.82898473739624
1712835432074264300,12.933264404296875,-8.12626838684082,-5.807964324951172,-1.6730424165725708
1712835432094230800,12.953230712890624,-5.224004745483398,-7.4348835945129395,2.656799077987671
1712835432114197500,12.973197509765624,-4.02354621887207,-6.429094314575195,0.3169088363647461
1712835432134164000,12.9931640625,-3.472012996673584,-4.0024733543396,-3.8518171310424805
1712835432154130700,13.013130615234376,-2.3697736263275146,-1.9363512992858887,-8.371015548706055
1712835432174097400,13.033097412109376,-2.4819889068603516,1.0508718490600586,-11.327606201171875
1712835432194064100,13.053064208984376,-2.848292350769043,4.131866455078125,-11.084030151367188
1712835432214031000,13.073031005859375,-5.0856614112854,5.688811302185059,-9.927881240844727
1712835432233997600,13.09299755859375,-5.702145099639893,4.459652900695801,-2.7655022144317627
1712835432253964300,13.11296435546875,-0.3629850149154663,5.332721710205078,22.109994888305664
1712835432273931000,13.132930908203125,3.107017993927002,-0.9145069122314453,28.377132415771484
1712835432293897700,13.152897705078125,1.0293411016464233,0.7044162750244141,14.748456954956055
1712835432313864400,13.172864501953125,1.2337712049484253,0.7870807647705078,14.67155647277832
1712835432333831000,13.192830810546875,1.5484044551849365,4.899388313293457,1.163006067276001
1712835432353797600,13.212797607421875,4.96565055847168,1.787496566772461,-5.10676908493042
1712835432373764400,13.232764404296875,1.8919141292572021,1.8888330459594727,-5.158571243286133
1712835432393764400,13.252764404296874,-0.7173681259155273,0.27649593353271484,-2.6887400150299072
1712835432413764400,13.272764404296876,0.030179500579833984,-1.8249626159667969,-1.442442536354065
1712835432433764400,13.292764404296875,0.4836333990097046,-2.3545055389404297,-0.4894387722015381
1712835432453764400,13.312764404296875,0.3585866689682007,-2.3653430938720703,-0.5389728546142578
1712835432473764400,13.332764404296874,-0.7152144908905029,-2.4222521781921387,-0.29643678665161133
1712835432493764400,13.352764404296876,-1.729913592338562,-1.79441499710083,-0.2548947334289551
1712835432513764400,13.372764404296875,-0.8075157403945923,-1.4888176918029785,0.9036686420440674
1712835432533764400,13.392764404296875,-0.49386346340179443,-0.9107637405395508,1.5095760822296143
1712835432553764400,13.412764404296874,-0.10084056854248047,-0.5863018035888672,1.0589804649353027
1712835432573764400,13.432764404296876,0.15201544761657715,-1.076070785522461,0.23952341079711914
1712835432593764400,13.452764404296875,0.6619898080825806,-1.658055305480957,0.18402695655822754
1712835432613764400,13.472764404296875,0.8096417188644409,-1.8793258666992188,0.5332727432250977
1712835432633764400,13.492764404296874,-0.238028883934021,-1.0409955978393555,0.4865305423736572
1712835432653764400,13.512764404296876,-0.21875834465026855,-1.0751256942749023,0.6447024345397949
1712835432673764400,13.532764404296875,-0.9513963460922241,5.916384696960449,4.803176403045654
1712835432693764400,13.552764404296875,3.089751720428467,4.487673759460449,7.05741024017334
1712835432713764600,13.5727646484375,5.740792274475098,3.171992301940918,9.43552017211914
1712835432733764600,13.5927646484375,3.39333176612854,3.489232063293457,9.36824893951416
1712835432753764600,13.6127646484375,3.0654313564300537,3.5023269653320312,9.146583557128906
1712835432773764600,13.6327646484375,-4.7537736892700195,3.9092559814453125,1.2401719093322754
1712835432793764600,13.6527646484375,-8.23621654510498,3.0207366943359375,-4.251996040344238
1712835432813764400,13.672764404296874,-1.7235422134399414,2.7596654891967773,-0.6783826351165771
1712835432833764400,13.692764404296875,-2.2858405113220215,2.8542661666870117,-0.8484878540039062
1712835432853764400,13.712764404296875,1.5995821952819824,-0.7494602203369141,-8.958595275878906
1712835432873764400,13.732764404296875,1.0799124240875244,-0.696568489074707,-8.823339462280273
1712835432893764400,13.752764404296874,-8.53117561340332,-6.256012916564941,-7.970987319946289
1712835432913764400,13.772764404296876,-6.645427703857422,-4.106191635131836,-1.8856650590896606
1712835432933764400,13.792764404296875,-3.5164403915405273,-5.919936656951904,2.062563180923462
1712835432953764400,13.812764404296875,-4.114256858825684,-6.648608207702637,2.502915859222412
1712835432973764400,13.832764404296874,-5.047196388244629,-5.786288261413574,-2.775453805923462
1712835432993764400,13.852764404296876,-4.681113243103027,-5.835203170776367,-2.82069993019104
1712835433013764400,13.872764404296875,-2.855970859527588,-0.38541221618652344,-11.210908889770508
1712835433033764400,13.892764404296875,-2.318871021270752,1.2187395095825195,-9.76543140411377
1712835433053764400,13.912764404296874,-2.1832945346832275,4.361260414123535,-7.731174945831299
1712835433073764400,13.932764404296876,-1.4195427894592285,4.280241966247559,-7.318566799163818
1712835433093764400,13.952764404296875,-5.21599006652832,6.092827796936035,11.264232635498047
1712835433113764400,13.972764404296875,0.36582231521606445,5.759238243103027,26.006980895996094
1712835433133764400,13.992764404296874,5.850302219390869,2.4427738189697266,16.2115478515625
1712835433153764400,14.012764404296876,4.712128639221191,3.382068634033203,6.9434285163879395
1712835433173764400,14.032764404296875,3.4426207542419434,4.3632612228393555,2.8711109161376953
1712835433193764400,14.052764404296875,3.3789587020874023,4.383203506469727,2.7018959522247314
1712835433213764600,14.0727646484375,0.03570842742919922,2.705524444580078,-3.1350514888763428
1712835433233764600,14.0927646484375,-1.6043813228607178,1.4490270614624023,-0.7594236135482788
1712835433253764600,14.1127646484375,-0.42081713676452637,-0.9862184524536133,1.254007339477539
1712835433273764600,14.1327646484375,0.5947668552398682,-2.3889312744140625,1.7501578330993652
1712835433293764600,14.1527646484375,0.42089104652404785,-2.398305892944336,1.6305558681488037
1712835433313764400,14.172764404296874,-0.7541677951812744,-1.8368558883666992,-0.0271456241607666
1712835433333764400,14.192764404296875,-1.1858017444610596,-1.7659568786621094,-0.8842825889587402
1712835433353764400,14.212764404296875,-1.6023736000061035,-2.073495388031006,-1.251875877380371
1712835433373764400,14.232764404296875,-1.4288774728775024,-1.981440544128418,-1.1941397190093994
1712835433393764400,14.252764404296874,-1.284665822982788,-0.8653402328491211,-0.7976846694946289
1712835433413764400,14.272764404296876,-0.7471749782562256,-0.3842287063598633,-0.5639467239379883
1712835433433764400,14.292764404296875,0.1546189785003662,-1.0495586395263672,0.027155160903930664
1712835433453764400,14.312764404296875,0.7771616578102112,-1.794743537902832,0.7844548225402832
1712835433473764400,14.332764404296874,0.47072720527648926,-1.6632657051086426,1.0774948596954346
1712835433493764400,14.352764404296876,-0.14481639862060547,0.5831460952758789,1.786644458770752
1712835433513764400,14.372764404296875,-0.1596308946609497,0.5440864562988281,1.927107810974121
1712835433533764400,14.392764404296875,-0.24262452125549316,4.480942726135254,3.6770012378692627
1712835433553764400,14.412764404296874,-0.38473260402679443,4.446990966796875,3.7289071083068848
1712835433573764400,14.432764404296876,1.8788857460021973,2.2424421310424805,5.649683952331543
1712835433593764400,14.452764404296875,1.803175449371338,2.8104867935180664,6.372228145599365
1712835433613764400,14.472764404296875,0.174862802028656,2.800755500793457,3.842085361480713
1712835433633764400,14.492764404296874,-0.3127637803554535,3.7259302139282227,-0.2507030963897705
1712835433653764400,14.512764404296876,-3.955824136734009,2.7275047302246094,-4.4779534339904785
1712835433673764400,14.532764404296875,-4.395965099334717,2.7856550216674805,-4.563930511474609
1712835433693764400,14.552764404296875,3.8163859844207764,-1.489232063293457,-2.98166823387146
1712835433713764600,14.5727646484375,3.2542006969451904,-1.4154367446899414,-2.891005516052246
1712835433733764600,14.5927646484375,-0.4106571674346924,-3.2058420181274414,-6.114255905151367
1712835433753764600,14.6127646484375,-3.6140384674072266,-3.209059238433838,-7.249227523803711
1712835433773764600,14.6327646484375,-3.104534387588501,-3.146981716156006,-4.770504951477051
1712835433793764600,14.6527646484375,-4.723524570465088,-2.3919315338134766,-1.3067275285720825
1712835433813764400,14.672764404296874,-5.103222846984863,-3.409453868865967,0.0172727108001709
1712835433833764400,14.692764404296875,-6.322318077087402,-4.3332953453063965,-0.0036525726318359375
1712835433853764400,14.712764404296875,-6.268296241760254,-2.9803061485290527,-0.9837756156921387
1712835433873764400,14.732764404296875,-5.858546257019043,-3.0636534690856934,-1.0313560962677002
1712835433893764400,14.752764404296874,-3.816413402557373,0.827845573425293,-6.911773681640625
1712835433913764400,14.772764404296876,-4.070690155029297,4.044206619262695,-7.433553695678711
1712835433933764400,14.792764404296875,-2.544792413711548,4.612871170043945,-5.740900039672852
1712835433953764400,14.812764404296875,-1.3687896728515625,2.9478931427001953,-1.4336402416229248
1712835433973764400,14.832764404296874,-0.23814260959625244,0.24400615692138672,8.57579517364502
1712835433993764400,14.852764404296876,-0.4285658597946167,1.6999216079711914,19.12619972229004
1712835434013764400,14.872764404296875,0.022352933883666992,1.7864093780517578,19.18179702758789
1712835434033764400,14.892764404296875,3.869877815246582,2.061779022216797,7.4820122718811035
1712835434053764400,14.912764404296874,5.573615550994873,2.7825613021850586,2.885369300842285
1712835434073764400,14.932764404296876,5.550349235534668,2.8046483993530273,2.729274272918701
1712835434093764400,14.952764404296875,1.2294669151306152,3.2061567306518555,-2.7732391357421875
1712835434113764400,14.972764404296875,1.1384406089782715,3.2355480194091797,-3.0074172019958496
1712835434133764400,14.992764404296874,0.27698659896850586,0.8585023880004883,0.05984807014465332
1712835434153764400,15.012764404296876,0.7764545679092407,0.05327129364013672,0.49166321754455566
1712835434173764400,15.032764404296875,0.3699604272842407,-1.019658088684082,0.07792496681213379
1712835434193764400,15.052764404296875,-0.32764148712158203,-1.2582221031188965,-0.3429715633392334
1712835434213764600,15.0727646484375,-1.3902366161346436,-1.0980758666992188,0.3732726573944092
1712835434233764600,15.0927646484375,-2.0029470920562744,-1.5590672492980957,0.6972708702087402
1712835434253764600,15.1127646484375,-1.491040825843811,-1.6271510124206543,0.424238920211792
1712835434273764600,15.1327646484375,-1.605293869972229,-1.6405892372131348,0.41396141052246094
1712835434293764600,15.1527646484375,-0.880887508392334,-1.0925559997558594,0.41389966011047363
1712835434313764400,15.172764404296874,-0.312142014503479,-1.1995973587036133,0.3564281463623047
1712835434333764400,15.192764404296875,-0.07900571823120117,-1.7670583724975586,0.10218262672424316
1712835434353764400,15.212764404296875,-0.718863844871521,-2.7411794662475586,-0.7886710166931152
1712835434373764400,15.232764404296875,-1.0318971872329712,-2.8473615646362305,-0.40738916397094727
1712835434393764400,15.252764404296874,-1.213807225227356,-2.6426939964294434,0.09925150871276855
1712835434413764400,15.272764404296876,0.018172264099121094,-1.0221996307373047,1.454420566558838
1712835434433764400,15.292764404296875,0.8766016960144043,2.2047080993652344,3.2347397804260254
1712835434453764400,15.312764404296875,0.8099831342697144,2.1836605072021484,3.289086103439331
1712835434473764400,15.332764404296874,5.353892803192139,2.1551780700683594,3.5262088775634766
1712835434493764400,15.352764404296876,6.256185054779053,2.8270444869995117,4.927043914794922
1712835434513764400,15.372764404296875,5.801623344421387,2.838191032409668,4.802652359008789
1712835434533764400,15.392764404296875,2.4697811603546143,6.6894025802612305,3.1823017597198486
1712835434553764400,15.412764404296874,0.03146845102310181,7.626636505126953,0.2709770202636719
1712835434573764400,15.432764404296876,-1.2446151971817017,6.023415565490723,-0.44075441360473633
1712835434593764400,15.452764404296875,-2.7392735481262207,4.048615455627441,0.3117220401763916
1712835434613764400,15.472764404296875,-2.5722274780273438,0.5643167495727539,-0.24242115020751953
1712835434633764400,15.492764404296874,3.869962692260742,1.3061456680297852,3.484133005142212
1712835434653764400,15.512764404296876,2.832369089126587,0.10497093200683594,1.5102345943450928
1712835434673764400,15.532764404296875,-3.1425318717956543,-0.6657223701477051,-3.0253193378448486
1712835434693764400,15.552764404296875,-6.950721263885498,-0.5104036331176758,-5.7477617263793945
1712835434713764600,15.5727646484375,-7.018815040588379,-1.4006171226501465,-4.241194248199463
1712835434733764600,15.5927646484375,-4.106044292449951,-2.2942404747009277,0.14112639427185059
1712835434753764600,15.6127646484375,-2.6223838329315186,-2.68843936920166,1.1691930294036865
1712835434773764600,15.6327646484375,-2.259523630142212,-2.862203598022461,-0.5513491630554199
1712835434793764600,15.6527646484375,-2.421830415725708,-2.131931781768799,-1.7950153350830078
1712835434813764400,15.672764404296874,-2.792062759399414,-1.637892723083496,-2.0268912315368652
1712835434833764400,15.692764404296875,-2.888632297515869,-1.7163200378417969,-1.836540937423706
1712835434853764400,15.712764404296875,-3.2737560272216797,-1.7029852867126465,-2.285766124725342
1712835434873764400,15.732764404296875,-3.418790578842163,-1.7998504638671875,-2.5521597862243652
1712835434893764400,15.752764404296874,-3.2889950275421143,-1.8499622344970703,-2.677600145339966
1712835434913764400,15.772764404296876,-3.4962854385375977,-1.5476088523864746,-1.404625654220581
1712835434933764400,15.792764404296875,-4.243502140045166,-1.1129579544067383,-1.899071216583252
1712835434953764400,15.812764404296875,-2.7287678718566895,-1.1577048301696777,-2.2385239601135254
1712835434973764400,15.832764404296874,-2.5797905921936035,-0.23703622817993164,-4.029526710510254
1712835434993764400,15.852764404296876,-1.947782278060913,-0.42077112197875977,-4.255402565002441
1712835435013764400,15.872764404296875,-3.0170419216156006,5.017073631286621,-8.09918212890625
1712835435033764400,15.892764404296875,-2.204115867614746,4.80391788482666,-8.111225128173828
1712835435053764400,15.912764404296874,-2.983433723449707,3.6087894439697266,-4.2264604568481445
1712835435073764400,15.932764404296876,-1.8512697219848633,2.9925575256347656,5.733898162841797
1712835435093764400,15.952764404296875,0.006322503089904785,2.5285215377807617,21.95499038696289
1712835435113764400,15.972764404296875,-0.15876948833465576,-0.6797304153442383,17.669588088989258
1712835435133764400,15.992764404296874,-0.4810025691986084,1.4192476272583008,10.006230354309082
1712835435153764400,16.012764404296874,-0.3656272888183594,1.4580507278442383,9.960981369018555
1712835435173764400,16.032764404296874,5.812155723571777,2.5696983337402344,0.6677327156066895
1712835435193764400,16.052764404296877,4.5580596923828125,2.9874706268310547,-4.481964111328125
1712835435213764600,16.0727646484375,0.5330021381378174,2.2535219192504883,-6.566832542419434
1712835435233764600,16.0927646484375,-2.0236120223999023,0.5455245971679688,-4.0543718338012695
1712835435253764600,16.1127646484375,-0.937002956867218,-1.108076572418213,-0.9977583885192871
1712835435273764600,16.1327646484375,0.47527098655700684,-1.2286853790283203,0.6602263450622559
1712835435293764600,16.1527646484375,0.08471214771270752,-1.0693769454956055,1.007944107055664
1712835435313764400,16.172764404296874,-0.9308817982673645,-0.7726469039916992,1.3329410552978516
1712835435333764400,16.192764404296874,-1.036622166633606,-0.7825260162353516,1.8913984298706055
1712835435353764400,16.212764404296873,-0.645566463470459,-1.3509879112243652,1.9087400436401367
1712835435373764400,16.232764404296876,-0.6625304818153381,-1.554041862487793,1.5828523635864258
1712835435393764400,16.252764404296876,-0.8147820234298706,-1.5528993606567383,1.5640316009521484
1712835435413764400,16.272764404296876,-0.9154915809631348,-1.7144865989685059,0.5498700141906738
1712835435433764400,16.292764404296875,-0.9057087302207947,-1.7567095756530762,-0.49521660804748535
1712835435453764400,16.312764404296875,-1.1078917980194092,-0.7690668106079102,-1.2236413955688477
1712835435473764400,16.332764404296874,-1.1734178066253662,-0.6508579254150391,-1.0303442478179932
1712835435493764400,16.352764404296874,-1.127763032913208,-0.6694889068603516,-0.9901978969573975
1712835435513764400,16.372764404296873,-0.8242772817611694,-0.9267702102661133,-0.5221436023712158
1712835435533764400,16.392764404296877,-0.265218049287796,-1.0381197929382324,0.5973296165466309
1712835435553764400,16.412764404296876,-0.26607492566108704,-1.4492383003234863,0.5907766819000244
1712835435573764400,16.432764404296876,-0.47468820214271545,-1.8055400848388672,0.5413661003112793
1712835435593764400,16.452764404296875,-0.41295331716537476,-1.8538284301757812,0.6641921997070312
1712835435613764400,16.472764404296875,-0.514515221118927,-1.981405258178711,-0.637366771697998
1712835435633764400,16.492764404296874,-0.11760026216506958,-1.970630168914795,-1.301159381866455
1712835435653764400,16.512764404296874,0.08230215311050415,-1.9965991973876953,-1.6687532663345337
1712835435673764400,16.532764404296874,0.1789504885673523,-2.0497894287109375,-1.4916852712631226
1712835435693764400,16.552764404296877,-0.4033587574958801,2.8752670288085938,1.1306376457214355
1712835435713764600,16.5727646484375,-1.5257651805877686,6.013400077819824,3.272644281387329
1712835435733764600,16.5927646484375,-1.4780640602111816,5.978833198547363,3.409236192703247
1712835435753764600,16.6127646484375,3.7631044387817383,3.5868730545043945,10.588747024536133
1712835435773764600,16.6327646484375,3.570870876312256,3.5678672790527344,10.592273712158203
1712835435793764600,16.6527646484375,2.5757789611816406,4.515651702880859,7.075922012329102
1712835435813764400,16.672764404296874,0.16516192257404327,5.679412841796875,4.598651885986328
1712835435833764400,16.692764404296874,-0.13410304486751556,5.360112190246582,0.8808236122131348
1712835435853764400,16.712764404296873,-1.2604997158050537,4.416804313659668,-2.4889163970947266
1712835435873764400,16.732764404296876,-1.7858747243881226,4.53499698638916,-2.6382009983062744
1712835435893764400,16.752764404296876,-0.027324676513671875,3.8829526901245117,-3.57639479637146
1712835435913764400,16.772764404296876,3.3561787605285645,1.2143440246582031,-6.051671028137207
1712835435933764400,16.792764404296875,2.7811014652252197,1.366037368774414,-5.958077430725098
1712835435953764400,16.812764404296875,-9.964500427246094,-0.9878873825073242,-0.6977689266204834
1712835435973764400,16.832764404296874,-4.214639186859131,-3.0029802322387695,0.4759385585784912
1712835435993764400,16.852764404296874,-1.5214130878448486,-4.111555099487305,-0.39800047874450684
1712835436013764400,16.872764404296873,-1.6001901626586914,-5.748204708099365,-1.3934214115142822
1712835436033764400,16.892764404296877,-3.79190993309021,-5.739983081817627,-2.0457444190979004
1712835436053764400,16.912764404296876,-5.822872161865234,-3.548468589782715,-4.479546070098877
1712835436073764400,16.932764404296876,-6.682187080383301,-1.7820453643798828,-4.778262615203857
1712835436093764400,16.952764404296875,-4.665111064910889,-0.5082001686096191,-3.644061803817749
1712835436113764400,16.972764404296875,-0.4125242233276367,-2.063990592956543,-3.2039170265197754
1712835436133764400,16.992764404296874,1.8750848770141602,-1.0788283348083496,-3.1081149578094482
1712835436153764400,17.012764404296874,2.281737804412842,-1.0780348777770996,-3.339080572128296
1712835436173764400,17.032764404296874,1.406440258026123,-1.1511797904968262,-2.7559633255004883
1712835436193764400,17.052764404296877,1.3820960521697998,-0.396148681640625,-1.4791061878204346
1712835436213764600,17.0727646484375,2.025315761566162,-0.41680908203125,-0.41617727279663086
1712835436233764600,17.0927646484375,2.344452381134033,-0.823768138885498,0.2575407028198242
1712835436253764600,17.1127646484375,2.2074155807495117,-1.2668185234069824,-0.6403615474700928
1712835436273764600,17.1327646484375,0.4401744604110718,-1.6208882331848145,-1.5374069213867188
1712835436293764600,17.1527646484375,-0.8329015970230103,-1.574653148651123,-0.9748420715332031
1712835436313764400,17.172764404296874,0.6565300226211548,-2.087834358215332,-0.598677396774292
1712835436333764400,17.192764404296874,-1.9611189365386963,1.3171253204345703,0.17131948471069336
1712835436353764400,17.212764404296873,-8.136981964111328,7.837061882019043,0.6371567249298096
1712835436373764400,17.232764404296876,-8.370782852172852,7.644359588623047,1.1427741050720215
1712835436393764400,17.252764404296876,9.865900993347168,1.1129827499389648,3.644929885864258
1712835436413764400,17.272764404296876,-2.440858840942383,2.4955873489379883,4.590554237365723
1712835436433764400,17.292764404296875,0.7187111377716064,6.363750457763672,10.596439361572266
1712835436453764400,17.312764404296875,0.36151838302612305,6.422731399536133,10.551050186157227
1712835436473764400,17.332764404296874,8.554733276367188,3.1176509857177734,19.90938949584961
1712835436493764400,17.352764404296874,5.1895341873168945,10.035232543945312,13.130156517028809
1712835436513764400,17.372764404296873,-2.0989267826080322,3.832076072692871,-9.299238204956055
1712835436533764400,17.392764404296877,-4.238399505615234,0.1332550048828125,-11.375781059265137
1712835436553764400,17.412764404296876,-8.324783325195312,-0.6958255767822266,-7.920949935913086
1712835436573764400,17.432764404296876,-8.520838737487793,-0.5151805877685547,-8.19389533996582
1712835436593764400,17.452764404296875,4.14797306060791,-0.9367632865905762,6.413600921630859
1712835436613764400,17.472764404296875,3.8706564903259277,-0.6831607818603516,6.1826677322387695
1712835436633764400,17.492764404296874,-4.5000224113464355,-0.8688244819641113,0.8466849327087402
1712835436653764400,17.512764404296874,-9.361143112182617,0.6942157745361328,-5.048588752746582
1712835436673764400,17.532764404296874,-8.885427474975586,-1.7671279907226562,-7.444954872131348
1712835436693764400,17.552764404296877,-8.91659927368164,-1.7684288024902344,-7.382776260375977
1712835436713764600,17.5727646484375,-5.750722885131836,-2.9539613723754883,-3.494102954864502
1712835436733764600,17.5927646484375,-3.6268486976623535,-2.9866209030151367,-1.2887510061264038
1712835436753764600,17.6127646484375,-3.842559337615967,-1.6957392692565918,-2.7886524200439453
1712835436773764600,17.6327646484375,-3.547327995300293,0.20857620239257812,-4.978193283081055
1712835436793764600,17.6527646484375,-3.3371288776397705,0.27796173095703125,-6.021238803863525
1712835436813764400,17.672764404296874,-2.2799997329711914,0.89813232421875,-8.557632446289062
1712835436833764400,17.692764404296874,-1.5376613140106201,0.6776323318481445,-8.674735069274902
1712835436853764400,17.712764404296873,-5.154285430908203,5.73658561706543,-8.474092483520508
1712835436873764400,17.732764404296876,-4.251734256744385,5.5127763748168945,-8.265474319458008
1712835436893764400,17.752764404296876,-3.4376113414764404,4.121916770935059,2.2153987884521484
1712835436913764400,17.772764404296876,-1.367497205734253,5.464516639709473,14.31724739074707
1712835436933764400,17.792764404296875,1.24363374710083,1.8083267211914062,20.998262405395508
1712835436953764400,17.812764404296875,1.1489204168319702,0.18745994567871094,18.353464126586914
1712835436973764400,17.832764404296874,1.423722267150879,0.24769878387451172,18.34967613220215
1712835436993764400,17.852764404296874,-1.128946304321289,2.7890024185180664,11.685042381286621
1712835437013764400,17.872764404296873,1.4970183372497559,3.0543441772460938,1.232062816619873
1712835437033764400,17.892764404296877,1.2953624725341797,2.207156181335449,-2.4817733764648438
1712835437053764400,17.912764404296876,0.7604519128799438,1.6091070175170898,-3.949326515197754
1712835437073764400,17.932764404296876,0.5985949039459229,1.663808822631836,-4.174504280090332
1712835437093764400,17.952764404296875,0.9884819984436035,-0.21539688110351562,-2.4886059761047363
1712835437113764400,17.972764404296875,1.116522192955017,-0.6510019302368164,-1.639744758605957
1712835437133764400,17.992764404296874,0.7709370851516724,-1.0509905815124512,-0.6695733070373535
1712835437153764400,18.012764404296874,-0.24070143699645996,-1.6892552375793457,-0.14459991455078125
1712835437173764400,18.032764404296874,-0.9513838887214661,-2.220569133758545,0.2598090171813965
1712835437193764400,18.052764404296877,-1.005713701248169,-2.304248809814453,0.5040392875671387
1712835437213764600,18.0727646484375,-0.4823073744773865,-2.003519058227539,0.6252646446228027
1712835437233764600,18.0927646484375,-0.11764931678771973,-1.321523666381836,0.8427891731262207
1712835437253764600,18.1127646484375,-0.4866907596588135,-0.9247241020202637,0.4911026954650879
1712835437273764600,18.1327646484375,-1.1771011352539062,-0.5714502334594727,-0.16587257385253906
1712835437293764600,18.1527646484375,-1.6572049856185913,-0.602294921875,-0.29584455490112305
1712835437313764400,18.172764404296874,-1.70784330368042,-0.5956935882568359,-0.31382274627685547
1712835437333764400,18.192764404296874,-0.6167558431625366,-0.8842501640319824,0.11732912063598633
1712835437353764400,18.212764404296873,-0.47121989727020264,-1.1741900444030762,0.3739485740661621
1712835437373764400,18.232764404296876,-0.11411941051483154,-0.9185452461242676,0.2936720848083496
1712835437393764400,18.252764404296876,0.05072742700576782,0.06468963623046875,-0.545133113861084
1712835437413764400,18.272764404296876,-1.039236068725586,0.0965414047241211,-1.0680170059204102
1712835437433764400,18.292764404296875,-1.4246582984924316,-0.35886096954345703,-0.3366551399230957
1712835437453764400,18.312764404296875,-0.7839151620864868,-1.1192989349365234,-0.37349700927734375
1712835437473764400,18.332764404296874,-1.0358381271362305,-0.8205361366271973,-0.19843101501464844
1712835437493764400,18.352764404296874,-2.2896571159362793,0.4077644348144531,1.2262792587280273
1712835437513764400,18.372764404296873,-1.0766547918319702,1.9972448348999023,3.372361183166504
1712835437533764400,18.392764404296877,-0.39934778213500977,1.3312959671020508,4.780829906463623
1712835437553764400,18.412764404296876,1.6486924886703491,0.7350044250488281,3.6353611946105957
1712835437573764400,18.432764404296876,1.7452040910720825,0.8152217864990234,3.5466771125793457
1712835437593764400,18.452764404296875,1.983972430229187,0.08882617950439453,2.0268802642822266
1712835437613764400,18.472764404296875,0.9125889539718628,1.0257225036621094,-0.2207350730895996
1712835437633764400,18.492764404296874,1.7282416820526123,1.3981413841247559,-0.6950774192810059
1712835437653764400,18.512764404296874,1.1886335611343384,1.0993313789367676,0.2059640884399414
1712835437673764400,18.532764404296874,-0.3091599941253662,0.666008472442627,0.909721851348877
1712835437693764400,18.552764404296877,-0.4734668731689453,0.7290964126586914,0.7591876983642578
1712835437713764600,18.5727646484375,0.1651782989501953,-0.08829689025878906,0.06208181381225586
1712835437733764600,18.5927646484375,1.424376368522644,0.3353128433227539,-0.7831892967224121
1712835437753764600,18.6127646484375,1.8235502243041992,0.2738022804260254,-2.7185447216033936
1712835437773764600,18.6327646484375,2.1375722885131836,0.1153106689453125,-3.9136390686035156
1712835437793764600,18.6527646484375,1.0942933559417725,-0.11638212203979492,-5.734014987945557
1712835437813764400,18.672764404296874,0.923545777797699,-0.21860313415527344,-5.602865695953369
1712835437833764400,18.692764404296874,-1.3466343879699707,-0.096527099609375,-6.832209587097168
1712835437853764400,18.712764404296873,-3.1287055015563965,0.3819150924682617,-6.480548858642578
1712835437873764400,18.732764404296876,-3.879645824432373,-0.03877544403076172,-4.553123950958252
1712835437893764400,18.752764404296876,-2.7812247276306152,0.30075740814208984,-3.429267406463623
1712835437913764400,18.772764404296876,-5.255983352661133,1.6572418212890625,-2.980510950088501
1712835437933764400,18.792764404296875,-6.106560707092285,2.323160171508789,5.500714302062988
1712835437953764400,18.812764404296875,-1.6989426612854004,0.9787502288818359,11.058391571044922
1712835437973764400,18.832764404296874,-1.5143804550170898,0.9322443008422852,11.410459518432617
1712835437993764400,18.852764404296874,4.346107006072998,-0.1527843475341797,-2.2780938148498535
1712835438013764400,18.872764404296873,0.40526676177978516,0.5651483535766602,-5.51555061340332
1712835438033764400,18.892764404296877,0.5465195178985596,0.5580224990844727,-5.200615882873535
1712835438053764400,18.912764404296876,-1.0283455848693848,1.0930366516113281,-4.577236175537109
1712835438073764400,18.932764404296876,-0.837315559387207,1.0551939010620117,-5.696934700012207
1712835438093764400,18.952764404296875,-2.295553684234619,-0.13061237335205078,3.985513210296631
1712835438113764400,18.972764404296875,-6.314218521118164,-2.8739819526672363,12.402597427368164
1712835438133764400,18.992764404296874,1.4220764636993408,1.097921371459961,10.92709732055664
1712835438153764400,19.012764404296874,2.2867021560668945,0.5722970962524414,8.35623550415039
1712835438173764400,19.032764404296874,2.341798782348633,0.6007223129272461,8.363995552062988
1712835438193764400,19.052764404296877,-0.18299436569213867,-0.014704704284667969,-0.6499369144439697
1712835438213764600,19.0727646484375,2.8676295280456543,0.8914070129394531,-0.2001916766166687
1712835438233764600,19.0927646484375,2.577651023864746,1.6178417205810547,3.177238941192627
1712835438253764600,19.1127646484375,0.747342586517334,1.1342716217041016,4.380807399749756
1712835438273764600,19.1327646484375,0.6851129531860352,1.0955238342285156,4.09380578994751
1712835438293764600,19.1527646484375,0.36487674713134766,0.8552684783935547,4.797654151916504
1712835438313764400,19.172764404296874,0.5815057754516602,0.8148012161254883,4.873968124389648
1712835438333764400,19.192764404296874,-0.21028757095336914,0.20042133331298828,3.331796884536743
1712835438353764400,19.212764404296873,-2.2384660243988037,-0.1770191192626953,-0.01661229133605957
1712835438373764400,19.232764404296876,-2.6351349353790283,-0.20949649810791016,-1.4137060642242432
1712835438393764400,19.252764404296876,-2.7106499671936035,-0.9335412979125977,-2.553682327270508
1712835438413764400,19.272764404296876,-3.229318141937256,-0.8777589797973633,-2.9617607593536377
1712835438433764400,19.292764404296875,-1.3028504848480225,-0.8839917182922363,-5.078584671020508
1712835438453764400,19.312764404296875,-0.5195651650428772,-0.9181137084960938,-7.2823686599731445
1712835438473764400,19.332764404296874,-0.6997379064559937,-2.752790927886963,-6.253962993621826
1712835438493764400,19.352764404296874,-0.8816060423851013,-2.759110927581787,-6.253846645355225
1712835438513764400,19.372764404296873,0.05526069551706314,-3.273685932159424,-0.14643383026123047
1712835438533764400,19.392764404296877,-1.0399409532546997,-3.3585028648376465,0.08556795120239258
1712835438553764400,19.412764404296876,-2.16435170173645,-2.883700370788574,-1.105393409729004
1712835438573764400,19.432764404296876,-2.5666096210479736,-1.9308643341064453,-1.656947135925293
1712835438593764400,19.452764404296875,-3.832095146179199,-0.6855525970458984,-1.1500744819641113
1712835438613764400,19.472764404296875,-3.633762836456299,-0.7734737396240234,-0.9038991928100586
1712835438633764400,19.492764404296874,-1.686469316482544,5.652094841003418,6.324660778045654
1712835438653764400,19.512764404296874,2.931967258453369,3.993989944458008,12.390435218811035
1712835438673764400,19.532764404296874,4.84951114654541,3.405548095703125,15.520134925842285
1712835438693764400,19.552764404296877,4.779242992401123,3.4336729049682617,15.414813995361328
1712835438713764600,19.5727646484375,0.1895884871482849,5.938017845153809,9.781373977661133
1712835438733764600,19.5927646484375,-2.704026699066162,6.655343055725098,4.165546417236328
1712835438753764600,19.6127646484375,-4.699014186859131,5.951170921325684,-1.144026756286621
1712835438773764600,19.6327646484375,-4.732154369354248,4.471570014953613,-2.516549825668335
1712835438793764600,19.6527646484375,-0.3655354380607605,2.1331424713134766,0.1140904426574707
1712835438813764400,19.672764404296874,-0.8865577578544617,2.330904006958008,-0.09209346771240234
1712835438833764400,19.692764404296874,1.1496179103851318,0.48925113677978516,-5.833584785461426
1712835438853764400,19.712764404296873,-2.9276742935180664,1.7757387161254883,-9.308618545532227
1712835438873764400,19.732764404296876,-4.527266979217529,-1.2105813026428223,-8.900813102722168
1712835438893764400,19.752764404296876,-3.3668084144592285,-3.3877220153808594,-5.293981075286865
1712835438913764400,19.772764404296876,-2.0358774662017822,-4.341019630432129,-2.640641450881958
1712835438933764400,19.792764404296875,-3.5984222888946533,-4.09742546081543,-3.23415470123291
1712835438953764400,19.812764404296875,-3.60162353515625,-4.1429338455200195,-3.145142078399658
1712835438973764400,19.832764404296874,-5.399866580963135,-2.271073341369629,-3.4074208736419678
1712835438993764400,19.852764404296874,-5.311100006103516,-2.359273910522461,-3.307070016860962
1712835439013764400,19.872764404296873,-2.8079993724823,-2.411336898803711,-3.4720489978790283
1712835439033764400,19.892764404296877,-2.5242764949798584,-2.5225305557250977,-3.4668428897857666
1712835439053764400,19.912764404296876,-3.0851142406463623,-1.3710966110229492,-4.248027324676514
1712835439073764600,19.9327646484375,-3.0022287368774414,0.8271121978759766,-6.488454341888428
1712835439093764600,19.9527646484375,-2.9546642303466797,1.7256622314453125,-7.639330863952637
1712835439113764000,19.97276416015625,-4.82293701171875,4.214601516723633,-8.138628959655762
1712835439133764000,19.99276416015625,-4.1065778732299805,4.055154800415039,-7.892953395843506
1712835439153764000,20.01276416015625,-6.4268107414245605,3.0571250915527344,-1.2301948070526123
1712835439173763800,20.032763916015625,-5.705015182495117,2.9674692153930664,-0.7854912281036377
1712835439193763800,20.052763916015625,-0.15292096138000488,3.560335159301758,18.071683883666992
1712835439213764000,20.07276416015625,-0.39720821380615234,3.112943649291992,16.028152465820312
1712835439233764000,20.09276416015625,-0.13037753105163574,3.1540441513061523,16.123937606811523
1712835439253764000,20.11276416015625,4.549271583557129,1.8166742324829102,6.8483734130859375
1712835439273764000,20.13276416015625,5.237133026123047,1.7184429168701172,2.5325183868408203
1712835439293764000,20.15276416015625,2.6921892166137695,2.231292724609375,-1.759448528289795
1712835439313763800,20.172763916015626,-0.6130205392837524,2.184393882751465,-4.239651203155518
1712835439333763800,20.192763916015625,-1.8420358896255493,0.2895927429199219,-3.9732987880706787
1712835439353763800,20.212763916015625,-0.7583668231964111,-1.391434669494629,-2.450958728790283
1712835439373763800,20.232763916015625,-0.4907153844833374,-1.7079143524169922,-1.3125128746032715
1712835439393763800,20.252763916015624,-0.5490051507949829,-1.683176040649414,-1.3995401859283447
1712835439413763300,20.272763427734375,-1.647432804107666,-1.6901121139526367,-0.7775285243988037
1712835439433763600,20.292763671875,-1.0632967948913574,-1.6188130378723145,1.8388686180114746
1712835439453763600,20.312763671875,-0.07447636127471924,-1.9753823280334473,2.4872565269470215
1712835439473763600,20.332763671875,0.07327449321746826,-2.1574249267578125,2.2874248027801514
1712835439493763600,20.352763671875,-0.41610991954803467,-1.9826579093933105,1.0609016418457031
1712835439513763000,20.37276318359375,-1.2964776754379272,-1.4300212860107422,-0.26566290855407715
1712835439533763600,20.392763671875,-1.5589771270751953,-1.3893942832946777,-1.158231258392334
1712835439553763600,20.412763671875,-1.542675495147705,-1.3938508033752441,-1.1427490711212158
1712835439573763600,20.432763671875,-1.1375977993011475,-1.6988015174865723,-0.8676104545593262
1712835439593763800,20.452763916015623,-0.9313315153121948,-1.4421062469482422,0.7746808528900146
1712835439613763800,20.472763916015627,-0.8133370876312256,-1.4618616104125977,0.8680644035339355
1712835439633763800,20.492763916015626,-0.9509837627410889,-1.2824797630310059,1.2638916969299316
1712835439653764000,20.51276416015625,-0.9834563732147217,-1.8369550704956055,1.5548067092895508
1712835439673763800,20.532763916015625,0.05486500263214111,-2.4360642433166504,0.8634617328643799
1712835439693763800,20.552763916015625,0.08691787719726562,-2.4742703437805176,0.9881176948547363
1712835439713764900,20.572764892578125,0.45677149295806885,-2.2024078369140625,0.21371984481811523
1712835439733764900,20.592764892578124,-2.04411244392395,6.091057777404785,2.502272605895996
1712835439753764900,20.612764892578124,0.17733395099639893,4.863035202026367,5.173370838165283
1712835439773764900,20.632764892578123,0.037903666496276855,4.826775550842285,5.212325096130371
1712835439793764900,20.652764892578126,4.810131549835205,2.7239770889282227,8.645559310913086
1712835439813764600,20.6727646484375,4.450137138366699,2.7392311096191406,8.471202850341797
1712835439833764400,20.692764404296874,-0.08764788508415222,4.368941307067871,6.186594009399414
1712835439853764600,20.7127646484375,-0.5390186309814453,4.443392753601074,5.961479187011719
1712835439873764400,20.732764404296876,-3.127699375152588,5.778702735900879,0.9436013698577881
1712835439893764600,20.7527646484375,-3.5632362365722656,1.0647344589233398,-3.2533154487609863
1712835439913764400,20.772764404296876,-4.106637954711914,1.1488237380981445,-3.2796220779418945
1712835439933764600,20.7927646484375,3.1056482791900635,-0.954348087310791,-4.385505676269531
1712835439953764600,20.8127646484375,2.4786906242370605,-0.8928093910217285,-4.117760181427002
1712835439973764600,20.8327646484375,-5.639105796813965,-4.170022487640381,-10.67032241821289
1712835439993764600,20.8527646484375,-6.258612632751465,-3.8527674674987793,-12.487234115600586
1712835440013765000,20.87276513671875,-5.201473236083984,1.2549505233764648,-6.601165771484375
1712835440033764900,20.892764892578125,-5.102883815765381,1.1938886642456055,-6.515752792358398
1712835440053764900,20.912764892578124,-1.6025935411453247,-3.326596736907959,5.017151832580566
1712835440073765000,20.93276513671875,-3.7475953102111816,-3.257894992828369,3.512324810028076
1712835440093765000,20.95276513671875,-7.285653114318848,-1.1117243766784668,2.5584490299224854
1712835440113765400,20.972765380859375,-5.50732421875,-1.2310962677001953,0.5630927085876465
1712835440133765000,20.99276513671875,-3.679311752319336,-1.076960563659668,-1.3251547813415527
1712835440153765000,21.01276513671875,-4.385271072387695,0.38653564453125,-3.205695152282715
1712835440173764900,21.032764892578125,-3.6276373863220215,0.9453163146972656,-7.169712066650391
1712835440193764600,21.0527646484375,-4.638952255249023,0.2268209457397461,-9.000699996948242
1712835440213764900,21.072764892578125,-3.4275238513946533,5.027795791625977,-6.954795837402344
1712835440233764900,21.092764892578124,-2.7328851222991943,4.982617378234863,-6.817225456237793
1712835440253764600,21.1127646484375,4.758855819702148,1.5225553512573242,9.5232515335083
1712835440273764600,21.1327646484375,2.8969833850860596,-1.1152563095092773,12.403830528259277
1712835440293764600,21.1527646484375,-2.3537521362304688,4.558213233947754,13.111398696899414
1712835440313764400,21.172764404296874,-1.7797901630401611,4.162970542907715,6.987874984741211
1712835440333764400,21.192764404296874,3.405208110809326,3.234736442565918,3.495572328567505
1712835440353764400,21.212764404296873,5.399815559387207,2.4392261505126953,0.5659728050231934
1712835440373764400,21.232764404296876,3.5679874420166016,2.005594253540039,-2.2978272438049316
1712835440393764400,21.252764404296876,3.329860210418701,2.0706987380981445,-2.596475839614868
1712835440413764400,21.272764404296876,-0.20266950130462646,-0.16237354278564453,-3.698246717453003
1712835440433764400,21.292764404296875,0.59769207239151,-1.2979388236999512,-1.5263159275054932
1712835440453764400,21.312764404296875,1.1386483907699585,-1.7783880233764648,-0.21393394470214844
1712835440473764400,21.332764404296874,0.43835484981536865,-2.272554397583008,-0.11563253402709961
1712835440493764400,21.352764404296874,-1.0333775281906128,-1.7961845397949219,-0.2751736640930176
1712835440513764400,21.372764404296873,-2.391596794128418,-1.4736065864562988,-0.48724937438964844
1712835440533764400,21.392764404296877,-2.601118803024292,-2.244204044342041,-0.5013623237609863
1712835440553764400,21.412764404296876,-1.9786070585250854,-2.4335145950317383,-0.6038665771484375
1712835440573764400,21.432764404296876,-0.9315811395645142,-2.159396171569824,-0.5039329528808594
1712835440593764400,21.452764404296875,-0.02033519744873047,-2.1812376976013184,-0.2017512321472168
1712835440613764400,21.472764404296875,-0.009343326091766357,-2.2446374893188477,0.028748035430908203
1712835440633764400,21.492764404296874,-0.3015151619911194,-1.963484764099121,-0.14202880859375
1712835440653764400,21.512764404296874,-0.4844444990158081,-1.6982221603393555,-0.7931931018829346
1712835440673764400,21.532764404296874,-0.3996431827545166,-1.730428695678711,-0.7117750644683838
1712835440693764400,21.552764404296877,-0.9297176599502563,-1.571737289428711,-0.40793704986572266
1712835440713764600,21.5727646484375,-0.46442079544067383,-1.4722657203674316,-0.19978713989257812
1712835440733764600,21.5927646484375,-0.3747537136077881,-1.5335936546325684,-0.03952169418334961
1712835440753764600,21.6127646484375,-0.08047759532928467,-1.8576035499572754,-0.19824004173278809
1712835440773764600,21.6327646484375,0.6685250401496887,-2.083974838256836,0.3992476463317871
1712835440793764600,21.6527646484375,0.6222344040870667,-0.6533880233764648,1.549929141998291
1712835440813764400,21.672764404296874,-0.01013481616973877,2.592958450317383,3.144914150238037
1712835440833764400,21.692764404296874,0.012900114059448242,4.80084228515625,4.680785179138184
1712835440853764400,21.712764404296873,-0.08278524875640869,4.748678207397461,4.785799026489258
1712835440873764400,21.732764404296876,3.228672742843628,3.713107109069824,5.984395503997803
1712835440893764400,21.752764404296876,4.699529647827148,3.1663026809692383,6.587963104248047
1712835440913764400,21.772764404296876,1.3954572677612305,5.254157066345215,5.88699197769165
1712835440933764400,21.792764404296875,0.9317030906677246,5.294894218444824,5.751406669616699
1712835440953764400,21.812764404296875,-1.2478227615356445,4.298175811767578,-0.9317898750305176
1712835440973764400,21.832764404296874,-1.6457152366638184,3.4430036544799805,0.13201522827148438
1712835440993764400,21.852764404296874,-1.839827060699463,1.2650232315063477,-0.8130664825439453
1712835441013764400,21.872764404296873,0.06216549873352051,0.2818918228149414,-0.3546130657196045
1712835441033764400,21.892764404296877,2.8252451419830322,0.7012119293212891,-1.4333651065826416
1712835441053764400,21.912764404296876,2.643916606903076,-0.2259979248046875,-4.022878646850586
1712835441073764400,21.932764404296876,-1.6626982688903809,-0.2186126708984375,-7.217806816101074
1712835441093764400,21.952764404296875,-7.802885055541992,-0.29032039642333984,-8.476119995117188
1712835441113764400,21.972764404296875,-8.696849822998047,-2.014606475830078,-4.021446228027344
1712835441133764400,21.992764404296874,-6.032663822174072,-3.9966273307800293,1.9214468002319336
1712835441153764400,22.012764404296874,-5.944248199462891,-3.967176914215088,1.7543306350708008
1712835441173764400,22.032764404296874,-4.191227436065674,-4.000094890594482,3.9154415130615234
1712835441193764400,22.052764404296877,-4.024353981018066,-4.050797939300537,3.8819000720977783
1712835441213764600,22.0727646484375,-5.024374961853027,-3.049567222595215,1.7557501792907715
1712835441233764600,22.0927646484375,-5.807473182678223,-2.7526965141296387,-3.9199295043945312
1712835441253764600,22.1127646484375,-5.080663681030273,-1.8835639953613281,-6.738572120666504
1712835441273764600,22.1327646484375,-4.57481050491333,-1.9537477493286133,-6.8695526123046875
1712835441293764600,22.1527646484375,-1.7749152183532715,2.215357780456543,-13.261280059814453
1712835441313764400,22.172764404296874,-0.5756592750549316,3.5748510360717773,-9.403072357177734
1712835441333764400,22.192764404296874,-0.5402326583862305,4.32402229309082,-6.696276664733887
1712835441353764400,22.212764404296873,-3.677189350128174,2.5175790786743164,-2.0345382690429688
1712835441373764400,22.232764404296876,-3.3586480617523193,6.382189750671387,12.307433128356934
1712835441393764400,22.252764404296876,-2.7626938819885254,6.415520668029785,12.662775039672852
1712835441413764400,22.272764404296876,1.5927131175994873,4.575878143310547,17.62045669555664
1712835441433764400,22.292764404296875,0.9374051094055176,1.9385614395141602,12.886091232299805
1712835441453764400,22.312764404296875,1.8557859659194946,2.1947174072265625,7.2639617919921875
1712835441473764400,22.332764404296874,5.002188682556152,2.0137882232666016,1.7908439636230469
1712835441493764400,22.352764404296874,4.860184669494629,2.0191783905029297,1.6038579940795898
1712835441513764400,22.372764404296873,0.29697275161743164,2.809237480163574,-3.369297742843628
1712835441533764400,22.392764404296877,-0.3439483642578125,0.44713592529296875,-1.533502459526062
1712835441553764400,22.412764404296876,-0.008112907409667969,-0.9711885452270508,-0.2773134708404541
1712835441573764400,22.432764404296876,0.08161568641662598,-1.7113094329833984,0.047545671463012695
1712835441593764400,22.452764404296875,-0.737551212310791,-2.2715210914611816,0.07368278503417969
1712835441613764400,22.472764404296875,-1.4778468608856201,-1.861271858215332,0.13857793807983398
1712835441633764400,22.492764404296874,-1.5895112752914429,-1.8496503829956055,0.04587149620056152
1712835441653764400,22.512764404296874,-1.9461164474487305,-1.4831337928771973,0.47999048233032227
1712835441673764400,22.532764404296874,-0.6754893064498901,-1.8513298034667969,1.2285854816436768
1712835441693764400,22.552764404296877,-0.7876497507095337,-1.8573427200317383,1.1925833225250244
1712835441713764600,22.5727646484375,-0.11324262619018555,-1.4021830558776855,1.104027509689331
1712835441733764600,22.5927646484375,0.07115674018859863,-1.2420201301574707,0.5868909358978271
1712835441753764600,22.6127646484375,-0.47623395919799805,-1.3053174018859863,-0.07591080665588379
1712835441773764600,22.6327646484375,-1.1426621675491333,-1.4072661399841309,-1.2873013019561768
1712835441793764600,22.6527646484375,-0.8877130746841431,-1.8806281089782715,-1.1659798622131348
1712835441813764400,22.672764404296874,-0.277445912361145,-2.50369930267334,-0.543442964553833
1712835441833764400,22.692764404296874,-0.18975543975830078,-2.7862696647644043,0.03070855140686035
1712835441853764400,22.712764404296873,0.5747416019439697,-3.060396671295166,0.17677640914916992
1712835441873764400,22.732764404296876,0.5974125862121582,-3.1148123741149902,0.3369295597076416
1712835441893764400,22.752764404296876,1.4982870817184448,-2.5443944931030273,0.7398426532745361
1712835441913764400,22.772764404296876,-2.0641932487487793,7.057886123657227,4.0648603439331055
1712835441933764400,22.792764404296875,-2.134282350540161,5.919878005981445,9.62024211883545
1712835441953764400,22.812764404296875,-2.291402816772461,5.904653549194336,9.589422225952148
1712835441973764400,22.832764404296874,3.5311999320983887,3.55544376373291,7.4137115478515625
1712835441993764400,22.852764404296874,3.160893440246582,3.603870391845703,7.169136047363281
1712835442013764400,22.872764404296873,-0.2905576527118683,5.366057395935059,4.592737197875977
1712835442033764400,22.892764404296877,-2.3876452445983887,4.151015281677246,-1.0874922275543213
1712835442053764400,22.912764404296876,-3.194265365600586,2.115680694580078,-2.771623373031616
1712835442073764400,22.932764404296876,-0.5868182182312012,0.6047554016113281,1.779292106628418
1712835442093764400,22.952764404296875,8.005224227905273,1.9802131652832031,0.18330812454223633
1712835442113764400,22.972764404296875,4.362688064575195,-0.47448253631591797,-4.855871677398682
1712835442133764400,22.992764404296874,-3.3589112758636475,0.8638372421264648,-8.89379596710205
1712835442153764400,23.012764404296874,-3.670729637145996,0.9051284790039062,-8.766986846923828
1712835442173764400,23.032764404296874,-6.803633689880371,-3.1432065963745117,-4.055154800415039
1712835442193764400,23.052764404296877,-4.061909198760986,-5.3053507804870605,1.3832612037658691
1712835442213764600,23.0727646484375,-3.0808706283569336,-6.928976535797119,2.584017753601074
1712835442233764600,23.0927646484375,-4.588939666748047,-5.576600074768066,0.7322673797607422
1712835442253764600,23.1127646484375,-6.124340057373047,-3.1459836959838867,-1.8472342491149902
1712835442273764600,23.1327646484375,-6.01723575592041,-3.2028093338012695,-1.8114585876464844
1712835442293764600,23.1527646484375,-3.480621576309204,-2.6619386672973633,-6.572904586791992
1712835442313764400,23.172764404296874,-3.1541433334350586,-2.7162675857543945,-6.663043022155762
1712835442333764400,23.192764404296874,-2.0442066192626953,1.0361213684082031,-8.37110710144043
1712835442353764400,23.212764404296873,-1.44544517993927,0.9743566513061523,-8.473237991333008
1712835442373764400,23.232764404296876,-3.5710744857788086,2.9820384979248047,-8.637420654296875
1712835442393764400,23.252764404296876,-3.155057191848755,7.125945091247559,-7.147534370422363
1712835442413764400,23.272764404296876,-3.785705804824829,6.457164764404297,-5.121585845947266
1712835442433764400,23.292764404296875,-3.1241469383239746,3.279296875,0.7670803070068359
1712835442453764400,23.312764404296875,-2.8521780967712402,4.114070892333984,14.148211479187012
1712835442473764400,23.332764404296874,-2.3617358207702637,4.152040481567383,14.471148490905762
1712835442493764400,23.352764404296874,-2.8570556640625,4.891811370849609,20.264345169067383
1712835442513764400,23.372764404296873,-1.4285991191864014,2.59628963470459,14.978007316589355
1712835442533764400,23.392764404296877,5.706742286682129,1.8818778991699219,6.182958602905273
1712835442553764400,23.412764404296876,5.019930839538574,3.0233049392700195,-0.04677939414978027
1712835442573764400,23.432764404296876,1.009656548500061,2.566164016723633,-3.8854804039001465
1712835442593764400,23.452764404296875,-1.9251809120178223,0.5801010131835938,-3.6977295875549316
1712835442613764400,23.472764404296875,-1.3558787107467651,-1.7004809379577637,-2.801626682281494
1712835442633764400,23.492764404296874,-1.5868676900863647,-1.6881585121154785,-2.956254720687866
1712835442653764400,23.512764404296874,-1.6675083637237549,-2.719740867614746,-2.474735975265503
1712835442673764400,23.532764404296874,-2.335736036300659,-2.829479694366455,-2.14410400390625
1712835442693764400,23.552764404296877,-2.3737058639526367,-2.8027424812316895,-2.225891590118408
1712835442713764600,23.5727646484375,-1.3606568574905396,-2.2108898162841797,-0.30375194549560547
1712835442733764600,23.5927646484375,0.23623573780059814,-1.148634433746338,2.6637156009674072
1712835442753764600,23.6127646484375,-0.4091677665710449,-0.9391202926635742,1.742304801940918
1712835442773764600,23.6327646484375,-0.44226741790771484,-0.9481925964355469,1.7531437873840332
1712835442793764600,23.6527646484375,-1.6729234457015991,-1.1838884353637695,-0.004647016525268555
1712835442813764400,23.672764404296874,-1.7019087076187134,-1.2070598602294922,0.04309725761413574
1712835442833764400,23.692764404296874,-1.107227087020874,-2.15437650680542,0.38452649116516113
1712835442853764400,23.712764404296873,-0.74586021900177,0.03283405303955078,0.32677721977233887
1712835442873764400,23.732764404296876,0.26546967029571533,4.1926469802856445,1.8134188652038574
1712835442893764400,23.752764404296876,0.939064621925354,4.493674278259277,3.027651786804199
1712835442913764400,23.772764404296876,2.2540335655212402,0.9193954467773438,2.9076244831085205
1712835442933764400,23.792764404296875,2.2658889293670654,0.9233131408691406,2.9007928371429443
1712835442953764400,23.812764404296875,0.5273589491844177,0.7673835754394531,2.6319468021392822
1712835442973764400,23.832764404296874,0.2798965573310852,0.5611763000488281,1.35158109664917
1712835442993764400,23.852764404296874,-0.20965945720672607,0.6822118759155273,0.0932774543762207
1712835443013764400,23.872764404296873,-0.5515432357788086,1.1986370086669922,-1.188758373260498
1712835443033764400,23.892764404296877,-0.6113196611404419,1.2626571655273438,-1.3539445400238037
1712835443053764400,23.912764404296876,-0.41658228635787964,0.9618701934814453,-1.6771903038024902
1712835443073764400,23.932764404296876,0.12265902757644653,-0.19338703155517578,-2.1667275428771973
1712835443093764400,23.952764404296875,0.4383256733417511,-0.9282550811767578,-2.843657970428467
1712835443113764400,23.972764404296875,0.4111766815185547,-1.0203437805175781,-3.466179847717285
1712835443133764400,23.992764404296874,0.396060049533844,-1.0052614212036133,-3.4984517097473145
1712835443153764400,24.012764404296874,-0.8516598343849182,2.823823928833008,-2.8091864585876465
1712835443173764400,24.032764404296874,-0.7334491014480591,0.6423130035400391,-0.36499977111816406
1712835443193764400,24.052764404296877,0.13649141788482666,-1.4146933555603027,2.459611415863037
1712835443213764600,24.0727646484375,0.19936811923980713,-1.4054694175720215,2.4542112350463867
1712835443233764600,24.0927646484375,1.9119722843170166,-2.527698516845703,1.8385071754455566
1712835443253764600,24.1127646484375,0.5104179382324219,-1.2142581939697266,0.7191834449768066
1712835443273764600,24.1327646484375,-0.7191572189331055,-0.1466236114501953,-0.27417659759521484
1712835443293764600,24.1527646484375,-1.1736211776733398,0.626708984375,-1.050917387008667
1712835443313764400,24.172764404296874,-1.33137845993042,1.1997346878051758,-1.365962028503418
1712835443333764400,24.192764404296874,-1.39347505569458,1.2188606262207031,-1.40761137008667
1712835443353764400,24.212764404296873,0.3973580002784729,1.138010025024414,-1.559786081314087
1712835443373764400,24.232764404296876,0.3836357593536377,1.1302623748779297,-1.5476210117340088
1712835443393764400,24.252764404296876,1.559372901916504,0.5044822692871094,-0.9728326797485352
1712835443413764400,24.272764404296876,1.5811643600463867,0.47380924224853516,-0.9153079986572266
1712835443433764400,24.292764404296875,0.6986416578292847,0.6680488586425781,-0.36323070526123047
1712835443453764400,24.312764404296875,-0.33477264642715454,0.3226966857910156,0.060416221618652344
1712835443473764400,24.332764404296874,-1.1748456954956055,-0.11089134216308594,0.6528816223144531
1712835443493764400,24.352764404296874,-1.7183845043182373,-0.3453845977783203,1.4880995750427246
1712835443513764400,24.372764404296873,-0.8907763361930847,-0.8735685348510742,1.3238706588745117
1712835443533764400,24.392764404296877,0.11992985010147095,-0.8870830535888672,0.3784303665161133
1712835443553764400,24.412764404296876,0.21243983507156372,-0.8293232917785645,-0.444244384765625
1712835443573764400,24.432764404296876,0.12023615837097168,-0.8083453178405762,-0.4924750328063965
1712835443593764400,24.452764404296875,-0.20970246195793152,0.3250617980957031,-0.3464365005493164
1712835443613764400,24.472764404296875,-0.24431553483009338,1.1500272750854492,-0.4669032096862793
1712835443633764400,24.492764404296874,-0.13679447770118713,1.5514869689941406,-0.9527904987335205
1712835443653764400,24.512764404296874,-0.16723814606666565,1.5330944061279297,-0.920691728591919
1712835443673764400,24.532764404296874,0.8150924444198608,-0.4492464065551758,-0.6562981605529785
1712835443693764400,24.552764404296877,1.1469838619232178,-1.554062843322754,-0.5601868629455566
1712835443713764600,24.5727646484375,1.1329349279403687,-1.5560855865478516,-0.5570135116577148
1712835443733764600,24.5927646484375,1.2583236694335938,-1.5509600639343262,-0.6969866752624512
1712835443753764600,24.6127646484375,1.2762024402618408,-1.5586018562316895,-0.6818633079528809
1712835443773764600,24.6327646484375,-2.239159107208252,3.0422773361206055,-0.34781312942504883
1712835443793764600,24.6527646484375,-2.7311012744903564,1.443206787109375,0.7165217399597168
1712835443813764400,24.672764404296874,-1.658616542816162,-0.1165170669555664,2.24965763092041
1712835443833764400,24.692764404296874,-0.40957510471343994,-1.041196346282959,2.3018832206726074
1712835443853764400,24.712764404296873,0.4726216197013855,-1.1492328643798828,1.109354019165039
1712835443873764400,24.732764404296876,0.40731531381607056,-0.29396820068359375,0.4240684509277344
1712835443893764400,24.752764404296876,0.08957798033952713,0.5297183990478516,0.3867955207824707
1712835443913764400,24.772764404296876,-0.007787004113197327,1.267923355102539,0.13248825073242188
1712835443933764400,24.792764404296875,0.46781447529792786,1.3086605072021484,-0.6679768562316895
1712835443953764400,24.812764404296875,0.9122283458709717,0.6234579086303711,-0.9516279697418213
1712835443973764400,24.832764404296874,1.1818172931671143,-0.019843101501464844,-0.4084634780883789
1712835443993764400,24.852764404296874,1.1101187467575073,-1.2539734840393066,0.16412734985351562
1712835444013764400,24.872764404296873,1.3675123453140259,-2.201205253601074,0.5067262649536133
1712835444033764400,24.892764404296877,1.0338170528411865,-1.7927007675170898,1.044581413269043
1712835444053764400,24.912764404296876,0.1227501928806305,2.0449790954589844,1.4281768798828125
1712835444073764400,24.932764404296876,-1.739736557006836,4.920093536376953,0.2988901138305664
1712835444093764400,24.952764404296875,-1.0301192998886108,2.883082389831543,0.43480634689331055
1712835444113764400,24.972764404296875,0.7885019183158875,0.0786895751953125,1.8313255310058594
1712835444133764400,24.992764404296874,1.8313504457473755,-1.5945863723754883,2.2464380264282227
1712835444153764400,25.012764404296874,1.8753771781921387,-1.6329989433288574,2.003617286682129
1712835444173764400,25.032764404296874,0.7703046202659607,-0.5224380493164062,1.9172420501708984
1712835444193764400,25.052764404296877,0.04125964641571045,-0.5631103515625,1.9151196479797363
1712835444213764600,25.0727646484375,-0.03247261047363281,-1.3447742462158203,1.143049716949463
1712835444233764600,25.0927646484375,-0.32500702142715454,-1.6638121604919434,0.07255077362060547
1712835444253764600,25.1127646484375,-0.8590145111083984,-1.6111574172973633,-0.4426393508911133
1712835444273764600,25.1327646484375,-1.3917291164398193,-1.8641290664672852,-0.6263504028320312
1712835444293764600,25.1527646484375,-1.4970780611038208,-2.3602981567382812,-0.3864126205444336
