time,seconds_elapsed,z,y,x
1712835419193901800,0.05290185546875,-0.008704829961061478,0.07872525602579117,0.0417679101228714
1712835419215858200,0.074858154296875,-0.00931569468230009,0.08544477820396423,0.033826664090156555
1712835419235858200,0.094858154296875,0.022449297830462456,0.09582948684692383,0.039324451237916946
1712835419255858200,0.114858154296875,0.03039054572582245,0.2491566687822342,0.03321579843759537
1712835419275858200,0.134858154296875,-0.009926560334861279,0.29619327187538147,-0.02054034359753132
1712835419295858200,0.154858154296875,0.02733621932566166,0.20028744637966156,0.01488984003663063
1712835419315858200,0.174858154296875,0.0377209298312664,0.07261660695075989,0.057650405913591385
1712835419335858200,0.194858154296875,0.01572977937757969,0.023747386410832405,0.04604396969079971
1712835419355858200,0.214858154296875,0.0377209298312664,0.03413209691643715,0.03260493278503418
1712835419375858200,0.234858154296875,0.013286318629980087,0.09399688988924026,0.025274548679590225
1712835419395858200,0.254858154296875,0.021838432177901268,0.024358252063393593,0.02710714563727379
1712835419415858200,0.274858154296875,0.06887505948543549,-0.0037415495608001947,0.04787656292319298
1712835419435858200,0.294858154296875,0.11591167747974396,0.03901901841163635,0.0771980956196785
1712835419455858200,0.314858154296875,0.23197607696056366,0.2699260711669922,0.14866933226585388
1712835419475858200,0.334858154296875,0.27779096364974976,0.8679631352424622,0.12973250448703766
1712835419495858200,0.354858154296875,0.2967278063297272,1.473941445350647,0.1578323096036911
1712835419515858200,0.374858154296875,0.5410739183425903,2.0432679653167725,0.11140654981136322
1712835419535858200,0.394858154296875,1.371850609779358,2.9504027366638184,-0.09750936180353165
1712835419555858200,0.414858154296875,1.8849774599075317,3.8544833660125732,-0.11278099566698074
1712835419575858200,0.434858154296875,2.3400721549987793,3.973602056503296,-0.1506546437740326
1712835419595858200,0.454858154296875,2.1335995197296143,4.165413856506348,-0.2911536395549774
1712835419615858200,0.474858154296875,1.4549282789230347,3.6070828437805176,-0.180587038397789
1712835419635858700,0.494858642578125,1.6491833925247192,2.388406753540039,-0.36018142104148865
1712835419655858700,0.514858642578125,2.138486623764038,1.6791921854019165,-0.391946405172348
1712835419675858700,0.534858642578125,2.3944389820098877,1.616273045539856,-0.3259729743003845
1712835419695858700,0.554858642578125,2.523942470550537,1.9406424760818481,-0.32902729511260986
1712835419715858700,0.574858642578125,2.671160936355591,2.505082130432129,-0.3357468247413635
1712835419735858700,0.594858642578125,2.928946018218994,2.6999480724334717,-0.36140313744544983
1712835419755858700,0.614858642578125,3.297297954559326,2.756758451461792,-0.3571271002292633
1712835419775858700,0.634858642578125,3.520263671875,3.2246813774108887,-0.3876703679561615
1712835419795858700,0.654858642578125,3.324786901473999,3.5557701587677,-0.43043091893196106
1712835419815858700,0.674858642578125,3.0663907527923584,3.460475206375122,-0.4799109995365143
1712835419835858700,0.694858642578125,3.1525228023529053,3.159318685531616,-0.6185774207115173
1712835419855858700,0.714858642578125,3.0358476638793945,2.6797895431518555,-0.6002514362335205
1712835419875858700,0.734858642578125,2.984534978866577,1.9363664388656616,-0.6320164799690247
1712835419895858700,0.754858642578125,2.7707319259643555,1.3926963806152344,-0.586812436580658
1712835419915858700,0.774858642578125,2.5276076793670654,0.7384597063064575,-0.41088324785232544
1712835419935858700,0.794858642578125,2.2881484031677246,-0.16745343804359436,-0.15859588980674744
1712835419955858700,0.814858642578125,1.9814941883087158,-0.8216901421546936,0.09674578160047531
1712835419975858700,0.834858642578125,1.504408359527588,-0.8833875060081482,0.39240455627441406
1712835419995858700,0.854858642578125,1.023046612739563,-0.21449005603790283,0.4205043613910675
1712835420015858700,0.874858642578125,0.537408709526062,0.7690029740333557,0.17127133905887604
1712835420035858700,0.894858642578125,0.10797043144702911,1.933312177658081,-0.29359710216522217
1712835420055858700,0.914858642578125,-0.13698652386665344,2.79524302482605,-0.5538256764411926
1712835420075858700,0.934858642578125,-0.5768095254898071,3.0395891666412354,-0.3418554663658142
1712835420095858700,0.954858642578125,-0.9909761548042297,3.049973726272583,-0.3381902575492859
1712835420115858700,0.974858642578125,-1.152855396270752,2.404900074005127,-0.09934195876121521
1712835420135859000,0.99485888671875,-1.494939923286438,1.5014303922653198,0.30566170811653137
1712835420155859000,1.01485888671875,-1.923767328262329,0.7128033638000488,0.6251442432403564
1712835420175859000,1.03485888671875,-2.015397071838379,-0.21265746653079987,0.7118870615959167
1712835420195859000,1.05485888671875,-1.285413146018982,-1.4606552124023438,0.9030879139900208
1712835420215859000,1.07485888671875,-0.6214026808738708,-2.207132577896118,1.268996238708496
1712835420235858700,1.094858642578125,0.09941831976175308,-2.5742626190185547,1.1181124448776245
1712835420255858700,1.114858642578125,0.3474296033382416,-2.7752370834350586,1.2286790609359741
1712835420275858700,1.134858642578125,0.2765692472457886,-3.1099913120269775,1.4339298009872437
1712835420295858700,1.154858642578125,-0.0025961773935705423,-3.194901704788208,1.5286139249801636
1712835420315858700,1.174858642578125,-0.35934147238731384,-2.938338279724121,1.5005141496658325
1712835420335858700,1.194858642578125,-0.6495024561882019,-3.0800588130950928,1.4430928230285645
1712835420355858700,1.214858642578125,-0.956156849861145,-2.994537830352783,1.4479796886444092
1712835420375858700,1.234858642578125,-1.297019600868225,-2.394057273864746,1.2335660457611084
1712835420395858700,1.254858642578125,-1.4424055814743042,-1.7276033163070679,0.8145124316215515
1712835420415858700,1.274858642578125,-1.306793451309204,-0.5920047760009766,0.30749428272247314
1712835420435858700,1.294858642578125,-1.0655016899108887,0.4415792226791382,-0.08651378750801086
1712835420455858700,1.314858642578125,-0.6287330389022827,1.5857298374176025,-0.43043091893196106
1712835420475858700,1.334858642578125,0.1696678251028061,2.4403302669525146,-0.7926740050315857
1712835420495858700,1.354858642578125,0.8202393054962158,2.675513505935669,-0.6026949286460876
1712835420515858700,1.374858642578125,1.1977540254592896,2.0414352416992188,-0.25450173020362854
1712835420535858700,1.394858642578125,1.432326316833496,1.3615422248840332,-0.6472880840301514
1712835420555858700,1.414858642578125,1.5691601037979126,0.9876927137374878,-1.148808479309082
1712835420575858700,1.434858642578125,1.4372131824493408,0.7946593165397644,-1.3167964220046997
1712835420595858700,1.454858642578125,1.594205617904663,0.5044983625411987,-1.1335368156433105
1712835420615858700,1.474858642578125,1.7438675165176392,0.2577087879180908,-0.8164977431297302
1712835420635859000,1.49485888671875,1.533729910850525,0.601015031337738,-0.6753878593444824
1712835420655859000,1.51485888671875,1.175152063369751,1.8569539785385132,-0.7499134540557861
1712835420675859000,1.53485888671875,0.9118691086769104,2.2326362133026123,-1.1689670085906982
1712835420695859000,1.55485888671875,0.6498079299926758,2.7353782653808594,-1.460349678993225
1712835420715859000,1.57485888671875,0.4280638098716736,3.2356767654418945,-1.545259952545166
1712835420735858700,1.594858642578125,0.28817567229270935,3.06341290473938,-1.5635859966278076
1712835420755858700,1.614858642578125,0.23136521875858307,2.8667142391204834,-1.6448310613632202
1712835420775858700,1.634858642578125,0.13301590085029602,2.436054229736328,-1.7358499765396118
1712835420795858700,1.654858642578125,-0.055741455405950546,2.158721446990967,-1.880014181137085
1712835420815858700,1.674858642578125,-0.038637228310108185,1.8771125078201294,-1.889788031578064
1712835420835858700,1.694858642578125,0.06215553730726242,1.8080847263336182,-2.003408908843994
1712835420855858700,1.714858642578125,-0.024587325751781464,2.1159608364105225,-2.154292583465576
1712835420875764200,1.73476416015625,-0.06123924255371094,2.3694698810577393,-2.451784133911133
1712835420895764200,1.75476416015625,0.016340645030140877,2.340148448944092,-2.8506789207458496
1712835420915764200,1.77476416015625,0.10919216275215149,1.8838320970535278,-2.9734628200531006
1712835420935764200,1.79476416015625,0.4415028691291809,1.1801153421401978,-2.9258153438568115
1712835420955764200,1.81476416015625,0.6473644375801086,0.22655464708805084,-2.734003782272339
1712835420975764200,1.83476416015625,0.8611672520637512,-0.7215082049369812,-2.3986387252807617
1712835420995764200,1.85476416015625,1.3474160432815552,-1.6261996030807495,-2.1182515621185303
1712835421015764200,1.87476416015625,1.8458820581436157,-2.2089650630950928,-2.027843475341797
1712835421035764200,1.89476416015625,2.233781576156616,-2.103285312652588,-1.7682257890701294
1712835421055764200,1.91476416015625,2.448806047439575,-1.9688950777053833,-0.9814313650131226
1712835421075764200,1.93476416015625,2.3101396560668945,-2.028148889541626,0.21097758412361145
1712835421095764200,1.95476416015625,1.913688063621521,-2.048307418823242,0.8633816838264465
1712835421115764200,1.97476416015625,1.4256067276000977,-2.2633321285247803,1.5469398498535156
1712835421135764500,1.994764404296875,1.3431400060653687,-3.532710075378418,1.9183459281921387
1712835421155764500,2.014764404296875,1.1775954961776733,-4.227874755859375,2.3166301250457764
1712835421175764500,2.034764404296875,0.5264131426811218,-5.062927722930908,2.6666557788848877
1712835421195764500,2.054764404296875,-0.432034432888031,-5.432500839233398,2.700864315032959
1712835421215764500,2.074764404296875,-0.9989174008369446,-5.164330959320068,2.396653413772583
1712835421235764200,2.09476416015625,-1.0752755403518677,-4.086153984069824,2.1718549728393555
1712835421255764200,2.11476416015625,-1.1143709421157837,-2.69582462310791,1.9586631059646606
1712835421275764200,2.13476416015625,-0.745408296585083,-1.5412893295288086,1.713706135749817
1712835421295764200,2.15476416015625,-0.3972151279449463,0.09888381510972977,0.5994879007339478
1712835421315764200,2.17476416015625,-0.632398247718811,2.480036497116089,-0.7920631766319275
1712835421335764200,2.19476416015625,-0.8529205918312073,3.773238182067871,-0.748080849647522
1712835421355764200,2.21476416015625,-0.43020185828208923,3.735975503921509,-1.0058659315109253
1712835421375764200,2.23476416015625,-0.17547103762626648,2.9785025119781494,-1.155527949333191
1712835421395764200,2.25476416015625,-0.3019201457500458,2.2002601623535156,-1.3497830629348755
1712835421415764200,2.27476416015625,-0.47907108068466187,1.5081499814987183,-1.481119155883789
1712835421435764200,2.29476416015625,-0.7527387142181396,1.1825587749481201,-1.5990161895751953
1712835421455764200,2.31476416015625,-0.9830349087715149,1.1324677467346191,-1.6210073232650757
1712835421475764200,2.33476416015625,-1.1583532094955444,1.0719921588897705,-1.413923978805542
1712835421495764200,2.35476416015625,-1.2524265050888062,0.9608146548271179,-0.9893726110458374
1712835421515764200,2.37476416015625,-1.3012956380844116,0.6804275512695312,-0.4139375686645508
1712835421535764200,2.39476416015625,-1.2530373334884644,-0.07215845584869385,0.024052819237113
1712835421555764200,2.41476416015625,-0.8987354636192322,-1.0837513208389282,0.060093868523836136
1712835421575764200,2.43476416015625,-0.24083362519741058,-1.82167649269104,-0.027870727702975273
1712835421595764200,2.45476416015625,0.508087158203125,-1.9597320556640625,0.13156510889530182
1712835421615764200,2.47476416015625,0.7628179788589478,-1.5260177850723267,0.4754822254180908
1712835421635764500,2.494764404296875,0.8575021028518677,-0.8497899174690247,0.9379072189331055
1712835421655764500,2.514764404296875,0.9454666972160339,-0.4545601010322571,1.542663812637329
1712835421675764500,2.534764404296875,1.0089967250823975,-0.6060546636581421,1.998980164527893
1712835421695764500,2.554764404296875,1.16293466091156,-1.1008555889129639,2.3007476329803467
1712835421715764500,2.574764404296875,1.1959214210510254,-2.036090135574341,2.639166831970215
1712835421735764200,2.59476416015625,0.9332493543624878,-3.3616678714752197,2.581134796142578
1712835421755764200,2.61476416015625,0.40973785519599915,-4.692132472991943,2.4821746349334717
1712835421775764200,2.63476416015625,-0.36300668120384216,-5.750761985778809,2.55547833442688
1712835421795764200,2.65476416015625,-1.2121093273162842,-7.304802894592285,1.9140698909759521
1712835421815764200,2.67476416015625,-1.4924964904785156,-8.115421295166016,1.4913511276245117
1712835421835764200,2.69476416015625,-0.7509061098098755,-7.481342792510986,1.834046483039856
1712835421855764200,2.71476416015625,0.32360586524009705,-5.147226810455322,1.7466927766799927
1712835421875764200,2.73476416015625,0.7951938509941101,-2.352518320083618,1.2317334413528442
1712835421895764200,2.75476416015625,0.8013024926185608,-0.19677497446537018,0.6306419968605042
1712835421915764200,2.77476416015625,0.9845620393753052,1.1104766130447388,-0.17203491926193237
1712835421935764200,2.79476416015625,1.2826642990112305,1.7885370254516602,-0.7376961708068848
1712835421955764200,2.81476416015625,1.394452691078186,1.895438551902771,-0.8763625621795654
1712835421975764200,2.83476416015625,1.383457064628601,1.3157273530960083,-1.0107529163360596
1712835421995764200,2.85476416015625,1.2264647483825684,0.31818443536758423,-1.3210724592208862
1712835422015764200,2.87476416015625,0.9527970552444458,-0.6420957446098328,-1.5544229745864868
1712835422035764200,2.89476416015625,0.6088799238204956,-1.2902237176895142,-1.5275448560714722
1712835422055764200,2.91476416015625,0.4415028691291809,-1.8418350219726562,-1.4640148878097534
1712835422075764200,2.93476416015625,0.36819902062416077,-1.9774471521377563,-1.366276502609253
1712835422095764200,2.95476416015625,0.33399057388305664,-1.4380531311035156,-1.252044677734375
1712835422115764200,2.97476416015625,0.3150537610054016,-0.5999460220336914,-1.0748937129974365
1712835422135764500,2.994764404296875,0.15256360173225403,0.17524196207523346,-0.8604800701141357
1712835422155764500,3.014764404296875,-0.009926560334861279,0.61139976978302,-0.7450265288352966
1712835422175764500,3.034764404296875,-0.16019940376281738,0.6340017914772034,-0.6692792177200317
1712835422195764500,3.054764404296875,-0.24633140861988068,0.44829872250556946,-0.5617669224739075
1712835422215764500,3.074764404296875,-0.25854870676994324,0.23510676622390747,-0.382783442735672
1712835422235764200,3.09476416015625,-0.26893341541290283,-0.03978259861469269,-0.17875444889068604
1712835422255764200,3.11476416015625,-0.31230485439300537,-0.23831380903720856,-0.03459024429321289
1712835422275764200,3.13476416015625,-0.41981714963912964,-0.30550897121429443,0.09980010986328125
1712835422295764200,3.15476416015625,-0.5432119369506836,-0.3073415756225586,0.2238057553768158
1712835422315764200,3.17476416015625,-0.6250678896903992,-0.3030655086040497,0.28672486543655396
1712835422335764200,3.19476416015625,-0.7057020664215088,-0.22853995859622955,0.33864840865135193
1712835422355764200,3.21476416015625,-0.7997753024101257,-0.11369729042053223,0.41867175698280334
1712835422375764200,3.23476416015625,-0.8914051055908203,-0.014737123623490334,0.5274057984352112
1712835422395764200,3.25476416015625,-0.9836457371711731,-0.0037415495608001947,0.5988770127296448
1712835422415764200,3.27476416015625,-1.1217013597488403,-0.008017606101930141,0.6691265106201172
1712835422435764200,3.29476416015625,-1.3183999061584473,0.004199698567390442,0.7583128213882446
1712835422455764200,3.31476416015625,-1.5163202285766602,-0.03978259861469269,0.8126798272132874
1712835422475764200,3.33476416015625,-1.6427693367004395,0.0720057412981987,0.8688794374465942
1712835422495764200,3.35476416015625,-1.4906638860702515,0.2436588704586029,0.8334492444992065
1712835422515764200,3.37476416015625,-1.3391693830490112,0.74395751953125,0.8554404377937317
1712835422535764200,3.39476416015625,-1.162629246711731,1.4122440814971924,0.5414556860923767
1712835422555764200,3.41476416015625,-0.7961101531982422,1.380479097366333,-0.46219590306282043
1712835422575764200,3.43476416015625,0.18860463798046112,2.714608907699585,-0.9423360228538513
1712835422595764200,3.45476416015625,1.12506103515625,4.544150352478027,-1.2117276191711426
1712835422615764200,3.47476416015625,1.3852896690368652,4.850193500518799,-1.3222942352294922
1712835422635764500,3.494764404296875,1.268614411354065,4.596073627471924,-1.5312100648880005
1712835422655764500,3.514764404296875,1.315040111541748,3.8783071041107178,-1.6637678146362305
1712835422675764500,3.534764404296875,1.296714186668396,3.554548501968384,-1.8085429668426514
1712835422695764500,3.554764404296875,1.0847439765930176,3.652287006378174,-2.1182515621185303
1712835422715764500,3.574764404296875,0.447000652551651,4.3462300300598145,-2.597169876098633
1712835422735764200,3.59476416015625,0.17516560852527618,3.5808157920837402,-1.557477355003357
1712835422755764200,3.61476416015625,0.15745051205158234,1.7451657056808472,-0.7095963358879089
1712835422775764200,3.63476416015625,0.19898934662342072,-0.21998783946037292,-0.9563859105110168
1712835422795764200,3.65476416015625,0.5099197626113892,-1.052597165107727,-1.2001211643218994
1712835422815764200,3.67476416015625,0.7536550164222717,-0.6787476539611816,-0.777402400970459
1712835422835764200,3.69476416015625,0.6351471543312073,0.6773731708526611,-0.2355649173259735
1712835422855764200,3.71476416015625,0.6620252132415771,1.8917733430862427,0.082085020840168
1712835422875764200,3.73476416015625,0.6944010853767395,2.3535873889923096,0.2983313202857971
1712835422895764200,3.75476416015625,0.6870706677436829,2.1074087619781494,0.6208681464195251
1712835422915764200,3.77476416015625,0.7121161818504333,1.3377184867858887,1.002048134803772
1712835422935764200,3.79476416015625,0.7402159571647644,0.3261256814002991,1.5548810958862305
1712835422955764200,3.81476416015625,0.7738135457038879,-0.7282277345657349,2.0777816772460938
1712835422975764200,3.83476416015625,0.8104654550552368,-1.6585755348205566,2.3563363552093506
1712835422995764200,3.85476416015625,0.7432702779769897,-2.692159414291382,2.246380567550659
1712835423015764200,3.87476416015625,0.04505131021142006,-3.78133225440979,2.1663572788238525
1712835423035764200,3.89476416015625,-0.7313584089279175,-4.827744483947754,1.9421696662902832
1712835423055764200,3.91476416015625,-1.5224288702011108,-6.199747562408447,1.5377769470214844
1712835423075764200,3.93476416015625,-1.751503348350525,-7.756232261657715,0.839557945728302
1712835423095764200,3.95476416015625,-1.2231049537658691,-8.02623462677002,0.5225188732147217
1712835423115764200,3.97476416015625,-0.3819434940814972,-6.437984943389893,0.9146943688392639
1712835423135764500,3.994764404296875,0.5416847467422485,-3.8521926403045654,1.4058300256729126
1712835423155764500,4.014764404296875,0.6687447428703308,-1.88154137134552,1.199357509613037
1712835423175764500,4.034764404296875,0.7151705026626587,-0.7777078151702881,0.14500413835048676
1712835423195764500,4.054764404296875,0.670577347278595,0.37132972478866577,-0.7010442018508911
1712835423215731200,4.074731201171875,0.5942191481590271,1.6327664852142334,-0.919123113155365
1712835423235697700,4.09469775390625,0.7854200005531311,2.0652589797973633,-0.7224245071411133
1712835423255664000,4.1146640625,0.9283624291419983,1.4067462682724,-0.7260897159576416
1712835423275630800,4.134630859375,0.7243334650993347,0.12576188147068024,-1.0846675634384155
1712835423295597600,4.15459765625,0.5386304259300232,-0.9151524901390076,-1.358335256576538
1712835423315564300,4.174564208984375,0.5111414790153503,-1.5889368057250977,-1.3265702724456787
1712835423335531000,4.194531005859375,0.5734497308731079,-1.8858174085617065,-1.1042152643203735
1712835423355498000,4.214498046875,0.5349652171134949,-1.7709747552871704,-0.938670814037323
1712835423375464400,4.23446435546875,0.3352122902870178,-1.2645673751831055,-0.8421540856361389
1712835423395431200,4.25443115234375,0.04382958263158798,-0.40508002042770386,-0.6998224854469299
1712835423415398000,4.27439794921875,-0.23289237916469574,0.39820778369903564,-0.5067890882492065
1712835423435364600,4.294364501953125,-0.39965859055519104,0.9400452375411987,-0.31009048223495483
1712835423455331300,4.314331298828125,-0.5688682794570923,1.1184178590774536,-0.1500437706708908
1712835423475297800,4.3342978515625,-0.7240280508995056,0.9131671786308289,0.017333300784230232
1712835423495264800,4.3542646484375,-0.8382598161697388,0.4366922974586487,0.17188221216201782
1712835423515231500,4.3742314453125,-0.9714284539222717,-0.05871942266821861,0.30566170811653137
1712835423535198200,4.3941982421875,-1.1400272846221924,-0.316504567861557,0.43883031606674194
1712835423555165000,4.4141650390625,-1.2841914892196655,-0.358654260635376,0.5573381781578064
1712835423575131400,4.43413134765625,-1.4821118116378784,-0.0012980886967852712,0.6715700030326843
1712835423595098000,4.45409814453125,-1.4442381858825684,0.2900846302509308,0.6324746012687683
1712835423615064800,4.47406494140625,-1.286634922027588,0.6358343362808228,0.6880633234977722
1712835423635031600,4.494031494140625,-0.9842566251754761,1.3615422248840332,0.7748062014579773
1712835423654998300,4.513998291015625,-0.8187121152877808,1.7915914058685303,0.5836054086685181
1712835423674964700,4.53396484375,-0.6055201888084412,1.3749812841415405,-0.15370896458625793
1712835423694931500,4.553931396484375,0.1635591685771942,2.3340396881103516,-0.4585307240486145
1712835423714898200,4.573898193359375,1.010829210281372,3.5514941215515137,-0.7138723731040955
1712835423734864600,4.59386474609375,1.362076759338379,4.321795463562012,-0.8238281607627869
1712835423754831400,4.613831298828125,1.4439327716827393,4.634558200836182,-0.9117927551269531
1712835423774797800,4.6337978515625,1.5013540983200073,4.6815948486328125,-1.0632872581481934
1712835423794764500,4.6537646484375,1.3089314699172974,4.867908954620361,-1.6808720827102661
1712835423814764500,4.6737646484375,0.6736316680908203,4.143422603607178,-2.1750621795654297
1712835423834764500,4.6937646484375,0.16172657907009125,4.527046203613281,-2.4725534915924072
1712835423854764800,4.713764892578125,0.007177666760981083,3.4470362663269043,-1.30091392993927
1712835423874764800,4.733764892578125,0.07987063378095627,1.0646617412567139,-0.9319512844085693
1712835423894764800,4.753764892578125,0.0981965884566307,-0.6934084296226501,-1.0724502801895142
1712835423914764800,4.773764892578125,0.20265454053878784,-0.5522985458374023,-0.870864748954773
1712835423934764800,4.793764892578125,0.34315356612205505,0.5014439821243286,-0.4188244938850403
1712835423954764500,4.8137646484375,0.3859141170978546,1.5722907781600952,0.09613491594791412
1712835423974764500,4.8337646484375,0.5422956347465515,2.017000675201416,0.292833536863327
1712835423994764800,4.853764892578125,0.8275696635246277,1.759826421737671,0.4907538592815399
1712835424014764800,4.873764892578125,1.0926852226257324,0.9595929384231567,0.7485389709472656
1712835424034764800,4.893764892578125,1.1794281005859375,-0.09414960443973541,1.2433398962020874
1712835424054764800,4.913764892578125,1.1439979076385498,-0.6689738035202026,1.7228690385818481
1712835424074764800,4.933764892578125,1.0829113721847534,-1.0751992464065552,2.139479160308838
1712835424094764500,4.9537646484375,0.9130908250808716,-1.3873512744903564,2.5176048278808594
1712835424114764500,4.9737646484375,0.5966626405715942,-2.2547800540924072,2.4210879802703857
1712835424134764500,4.9937646484375,0.010231993161141872,-3.1295390129089355,2.240272045135498
1712835424154764500,5.0137646484375,-0.8736900091171265,-4.540637493133545,1.9189567565917969
1712835424174764500,5.0337646484375,-1.7802140712738037,-5.920582294464111,1.0948995351791382
1712835424194764500,5.0537646484375,-2.278069257736206,-7.083669662475586,0.7827474474906921
1712835424214764500,5.0737646484375,-1.0361801385879517,-8.208272933959961,0.981889545917511
1712835424234764500,5.0937646484375,0.6009386777877808,-6.952944755554199,0.6037639379501343
1712835424254764500,5.1137646484375,0.7475463151931763,-2.9389491081237793,0.5506186485290527
1712835424274764500,5.1337646484375,0.717613935470581,0.5521458387374878,0.5567272901535034
1712835424294764500,5.1537646484375,0.7432702779769897,2.0603721141815186,0.06803511828184128
1712835424314764500,5.1737646484375,0.9326385259628296,2.164829969406128,-0.33452507853507996
1712835424334764500,5.1937646484375,1.0554224252700806,1.4831044673919678,-0.5929210782051086
1712835424354764800,5.213764892578125,1.0138835906982422,0.19967657327651978,-0.8226063847541809
1712835424374764800,5.233764892578125,1.0517572164535522,-0.8106945157051086,-1.195845127105713
1712835424394764800,5.253764892578125,1.100015640258789,-1.098412036895752,-1.4921146631240845
1712835424414764800,5.273764892578125,1.0651962757110596,-0.8051967620849609,-1.4377477169036865
1712835424434764800,5.293764892578125,0.9301950335502625,-0.3867540657520294,-1.1023826599121094
1712835424454764500,5.3137646484375,0.8208501935005188,-0.3317761719226837,-0.9337838888168335
1712835424474764500,5.3337646484375,0.6388123035430908,-0.4179081916809082,-0.8629235029220581
1712835424494764800,5.353764892578125,0.28756481409072876,-0.5125923156738281,-0.6833291053771973
1712835424514764800,5.373764892578125,-0.13515393435955048,-0.2981785833835602,-0.4072180390357971
1712835424534764800,5.393764892578125,-0.3452915847301483,0.03901901841163635,-0.19463694095611572
1712835424554764800,5.413764892578125,-0.5163338780403137,0.401262104511261,-0.027259862050414085
1712835424574764800,5.433764892578125,-0.6378960609436035,0.6456081867218018,0.13339769840240479
1712835424594764500,5.4537646484375,-0.7576256394386292,0.6657667756080627,0.2855031490325928
1712835424614764500,5.4737646484375,-0.8547531962394714,0.45257478952407837,0.42355868220329285
1712835424634764500,5.4937646484375,-0.9885326623916626,0.2033417671918869,0.4956407845020294
1712835424654764500,5.5137646484375,-1.2151637077331543,0.10071640461683273,0.5463426113128662
1712835424674764500,5.5337646484375,-1.3605495691299438,-0.02756529487669468,0.5744423866271973
1712835424694764500,5.5537646484375,-1.2848023176193237,-0.11125383526086807,0.554283857345581
1712835424714764500,5.5737646484375,-1.2072224617004395,-0.14851661026477814,0.544510006904602
1712835424734764500,5.5937646484375,-1.1198687553405762,0.03474296256899834,0.6172029972076416
1712835424754764500,5.6137646484375,-0.8199338912963867,0.439746618270874,0.3716351389884949
1712835424774764500,5.6337646484375,-0.45036038756370544,1.2802971601486206,-0.23923009634017944
1712835424794764500,5.6537646484375,-0.009926560334861279,2.5435664653778076,-0.49212831258773804
1712835424814764500,5.6737646484375,0.5850561857223511,3.8550941944122314,-0.889801561832428
1712835424834764500,5.6937646484375,1.12506103515625,4.364555835723877,-0.9832639694213867
1712835424854764800,5.713764892578125,1.2527319192886353,4.18373966217041,-1.0388526916503906
1712835424874764800,5.733764892578125,1.3364204168319702,3.6687803268432617,-1.204397201538086
1712835424894764800,5.753764892578125,1.2997685670852661,3.264387607574463,-1.3064117431640625
1712835424914764800,5.773764892578125,1.1763737201690674,3.075019359588623,-1.243492603302002
1712835424934764800,5.793764892578125,1.003498911857605,3.5398876667022705,-1.2068406343460083
1712835424954764500,5.8137646484375,0.4329507350921631,3.6290740966796875,-1.8940640687942505
1712835424974764500,5.8337646484375,-0.4925101101398468,3.731088638305664,-2.282574415206909
1712835424994764800,5.853764892578125,-0.6104071140289307,2.503249406814575,-1.0614547729492188
1712835425014764800,5.873764892578125,-0.6916521787643433,0.542982816696167,-0.4121049642562866
1712835425034764800,5.893764892578125,-0.8290968537330627,-1.1790462732315063,-0.9753227233886719
1712835425054764800,5.913764892578125,-0.3831652104854584,-1.500361442565918,-0.9655488729476929
1712835425074764800,5.933764892578125,-0.17791450023651123,-0.8730027675628662,-0.06513350456953049
1712835425094764500,5.9537646484375,-0.1846340149641037,-0.020845776423811913,0.7766388058662415
1712835425114764500,5.9737646484375,-0.059406645596027374,0.2742021381855011,1.2225704193115234
1712835425134764500,5.9937646484375,0.21365012228488922,0.021303925663232803,1.4773012399673462
1712835425154764500,6.0137646484375,0.4763221740722656,-0.4625013470649719,1.8419877290725708
1712835425174764500,6.0337646484375,0.6351471543312073,-1.2224177122116089,2.2030091285705566
1712835425194764500,6.0537646484375,0.566119372844696,-1.9823341369628906,2.3392322063446045
1712835425214764500,6.0737646484375,0.14645494520664215,-3.008587598800659,2.4766767024993896
1712835425234764500,6.0937646484375,-0.46013423800468445,-4.229096412658691,2.4565181732177734
1712835425254764500,6.1137646484375,-1.4136948585510254,-5.8149027824401855,2.0264689922332764
1712835425274764500,6.1337646484375,-1.943315029144287,-7.401930332183838,1.1553752422332764
1712835425294764500,6.1537646484375,-1.2878566980361938,-8.28829574584961,1.1816424131393433
1712835425314764500,6.1737646484375,0.12690725922584534,-7.583357334136963,1.1211668252944946
1712835425334764500,6.1937646484375,0.6498079299926758,-4.110588550567627,0.9287442564964294
1712835425354764800,6.213764892578125,0.3627012372016907,-0.6885215044021606,0.7919104099273682
1712835425374764800,6.233764892578125,0.4072943925857544,1.0683269500732422,0.02955060638487339
1712835425394764800,6.253764892578125,0.3969096839427948,1.7726545333862305,-0.633849024772644
1712835425414764800,6.273764892578125,0.355981707572937,1.781206727027893,-0.9624945521354675
1712835425434764800,6.293764892578125,0.5593998432159424,1.2418127059936523,-1.0351874828338623
1712835425454764500,6.3137646484375,0.6650795340538025,-0.2413681298494339,-1.2343295812606812
1712835425474764500,6.3337646484375,0.6113234162330627,-1.5608370304107666,-1.4316390752792358
1712835425494764800,6.353764892578125,0.7310529947280884,-2.006157875061035,-1.3797155618667603
1712835425514764800,6.373764892578125,0.8281805515289307,-1.9016999006271362,-1.0596221685409546
1712835425534764800,6.393764892578125,0.7536550164222717,-1.4246140718460083,-0.7444156408309937
1712835425554764800,6.413764892578125,0.4567744731903076,-0.8962156772613525,-0.5648213028907776
1712835425574764800,6.433764892578125,0.12996158003807068,-0.43195807933807373,-0.38461601734161377
1712835425594764500,6.4537646484375,-0.1186605766415596,0.05795583873987198,-0.1359938681125641
1712835425614764500,6.4737646484375,-0.29825496673583984,0.45379650592803955,0.02344195358455181
1712835425634764500,6.4937646484375,-0.44852781295776367,0.7897723913192749,0.08819366991519928
1712835425654764500,6.5137646484375,-0.5487096905708313,0.9919688105583191,0.15355625748634338
1712835425674764500,6.5337646484375,-0.593913733959198,1.0335075855255127,0.2537381649017334
1712835425694764500,6.5537646484375,-0.6513350605964661,1.017625093460083,0.42416954040527344
1712835425714764500,6.5737646484375,-0.8107708692550659,0.9718102216720581,0.5634468197822571
1712835425734764500,6.5937646484375,-0.9763153791427612,0.7103599309921265,0.6514114141464233
1712835425754764500,6.6137646484375,-1.1143709421157837,0.4409683346748352,0.6886742115020752
1712835425774764500,6.6337646484375,-1.1809552907943726,0.3749949038028717,0.6239224672317505
1712835425794764500,6.6537646484375,-0.9378308653831482,0.4452444016933441,0.5237405896186829
1712835425814764500,6.6737646484375,-0.6470590233802795,0.9088911414146423,0.4260021448135376
1712835425834764500,6.6937646484375,-0.5523748993873596,1.1281917095184326,0.011835514567792416
1712835425854764800,6.713764892578125,0.003512475173920393,1.6498706340789795,-0.624686062335968
1712835425874764800,6.733764892578125,0.6742424964904785,3.1177799701690674,-1.119486927986145
1712835425894764800,6.753764892578125,1.1659890413284302,4.257043361663818,-1.231275200843811
1712835425914764800,6.773764892578125,1.2008084058761597,4.1458659172058105,-1.356502652168274
1712835425934764800,6.793764892578125,1.0297660827636719,3.4445927143096924,-1.5544229745864868
1712835425954764500,6.8137646484375,0.8422304391860962,2.865492582321167,-1.6619352102279663
1712835425974764500,6.8337646484375,0.7225008606910706,2.2637901306152344,-1.5770249366760254
1712835425994764800,6.853764892578125,0.5117523670196533,2.2723424434661865,-1.7114152908325195
1712835426014764800,6.873764892578125,-0.00015271631127689034,2.8105146884918213,-1.8965075016021729
1712835426034764800,6.893764892578125,-0.4931209683418274,3.289433002471924,-2.209270477294922
1712835426054764800,6.913764892578125,-0.8254316449165344,2.935131072998047,-1.2795336246490479
1712835426074764800,6.933764892578125,-1.0031934976577759,1.5038738250732422,-0.4750240743160248
1712835426094764500,6.9537646484375,-0.8859072923660278,-0.30001118779182434,-0.5874232649803162
1712835426114764500,6.9737646484375,-0.5224425196647644,-1.4911984205245972,-0.8238281607627869
1712835426134764500,6.9937646484375,-0.2102903574705124,-1.5083026885986328,-0.38644862174987793
1712835426154764500,7.0137646484375,-0.03191770985722542,-0.8381834626197815,0.31177034974098206
1712835426174764500,7.0337646484375,0.1293507218360901,-0.022067507728934288,0.9751700162887573
1712835426194764500,7.0537646484375,0.3352122902870178,0.329790860414505,1.3380240201950073
1712835426214764500,7.0737646484375,0.5923865437507629,0.32246050238609314,1.6825519800186157
1712835426234764500,7.0937646484375,0.7597636580467224,-0.00618501054123044,2.0637319087982178
1712835426254764500,7.1137646484375,0.7609853744506836,-0.7642687559127808,2.370997190475464
1712835426274764500,7.1337646484375,0.5484042763710022,-1.99210786819458,2.6495516300201416
1712835426294764500,7.1537646484375,0.1085812970995903,-3.5809683799743652,2.758896589279175
1712835426314764500,7.1737646484375,-0.44913867115974426,-5.543067455291748,2.2781455516815186
1712835426334764500,7.1937646484375,-0.9066767692565918,-7.48012113571167,1.5011249780654907
1712835426354764800,7.213764892578125,-0.6959282159805298,-7.935215950012207,1.2024118900299072
1712835426374764800,7.233764892578125,0.011453723534941673,-6.332916259765625,1.1914162635803223
1712835426394764800,7.253764892578125,0.5997169613838196,-2.067244291305542,1.493794560432434
1712835426414764800,7.273764892578125,0.536797821521759,0.43852490186691284,0.9996046423912048
1712835426434764800,7.293764892578125,0.4983133375644684,1.5875624418258667,0.04482223838567734
1712835426454764500,7.3137646484375,0.45066583156585693,1.8881081342697144,-0.5177846550941467
1712835426474764500,7.3337646484375,0.5642867684364319,1.6523141860961914,-0.6698901057243347
1712835426494764800,7.353764892578125,0.7890852093696594,1.0903180837631226,-0.6478989720344543
1712835426514764800,7.373764892578125,0.8104654550552368,0.18745927512645721,-0.8311585187911987
1712835426534764800,7.393764892578125,0.7939720749855042,-0.5828418135643005,-1.193401575088501
1712835426554764800,7.413764892578125,0.82207190990448,-0.8284096121788025,-1.3766611814498901
1712835426574764800,7.433764892578125,0.7512115240097046,-0.8076401948928833,-1.2196688652038574
1712835426594764500,7.4537646484375,0.5807801485061646,-0.9145416021347046,-0.8940776586532593
1712835426614764500,7.4737646484375,0.36819902062416077,-1.3018301725387573,-0.6417902708053589
1712835426634764500,7.4937646484375,0.19654589891433716,-1.5107461214065552,-0.463417649269104
1712835426654764500,7.5137646484375,-0.005650503560900688,-1.2175308465957642,-0.2960405647754669
1712835426674764500,7.5337646484375,-0.25305092334747314,-0.607276439666748,-0.12866349518299103
1712835426694764500,7.5537646484375,-0.4375322461128235,-0.028176158666610718,-0.011377365328371525
1712835426714764500,7.5737646484375,-0.593302845954895,0.3957643210887909,0.06375905871391296
1712835426734764500,7.5937646484375,-0.7197519540786743,0.610788881778717,0.1682170182466507
1712835426754764500,7.6137646484375,-0.8309294581413269,0.724409818649292,0.27572929859161377
1712835426774764500,7.6337646484375,-0.9396634697914124,0.7934376001358032,0.37713292241096497
1712835426794764500,7.6537646484375,-1.062447428703308,0.8062657713890076,0.4467715620994568
1712835426814764500,7.6737646484375,-1.1827877759933472,0.6798166632652283,0.5677229166030884
1712835426834764500,7.6937646484375,-1.1711814403533936,0.45379650592803955,0.5212971568107605
1712835426854764800,7.713764892578125,-1.0746647119522095,0.4446335434913635,0.4211152195930481
1712835426874764800,7.733764892578125,-0.8462010622024536,0.6608798503875732,0.3099377453327179
1712835426894764800,7.753764892578125,-0.5346598029136658,0.8514698147773743,-0.05719225853681564
1712835426914764800,7.773764892578125,-0.09056077152490616,1.6040557622909546,-0.5318345427513123
1712835426934764800,7.793764892578125,0.5929974317550659,2.698115348815918,-0.9686031937599182
1712835426954764500,7.8137646484375,1.1427761316299438,3.795840263366699,-1.1372020244598389
1712835426974764500,7.8337646484375,1.2796099185943604,4.371886253356934,-1.3027465343475342
1712835426994764800,7.853764892578125,1.2166908979415894,4.3828816413879395,-1.3601678609848022
1712835427014764800,7.873764892578125,0.9973902106285095,3.996204137802124,-1.6833155155181885
1712835427034764800,7.893764892578125,0.7884743213653564,3.8159987926483154,-2.112143039703369
1712835427054764800,7.913764892578125,0.3119994103908539,3.4733033180236816,-2.748053550720215
1712835427074764800,7.933764892578125,-0.3006984293460846,3.38533878326416,-2.647260904312134
1712835427094764500,7.9537646484375,-0.5242751240730286,2.4928646087646484,-1.6869807243347168
1712835427114764500,7.9737646484375,-0.697760820388794,0.9088911414146423,-0.9508880972862244
1712835427134764500,7.9937646484375,-0.8596401214599609,-0.4747186601161957,-0.9661597609519958
1712835427154764500,8.0137646484375,-0.793666660785675,-0.9823476672172546,-0.748080849647522
1712835427174764500,8.0337646484375,-0.7728972434997559,-0.7734317779541016,-0.28871017694473267
1712835427194764500,8.0537646484375,-0.5035057067871094,-0.4032474160194397,0.2940552532672882
1712835427214764500,8.0737646484375,-0.058795779943466187,-0.0996473953127861,0.7937430143356323
1712835427234764500,8.0937646484375,0.19593502581119537,-0.13752104341983795,1.1865293979644775
1712835427254764500,8.1137646484375,0.3962988257408142,-0.44539710879325867,1.579926609992981
1712835427274764500,8.1337646484375,0.6479753255844116,-0.749608039855957,2.0570123195648193
1712835427294764500,8.1537646484375,0.7554876208305359,-1.2193633317947388,2.3819925785064697
1712835427314764500,8.1737646484375,0.5648976564407349,-1.8760435581207275,2.5854108333587646
1712835427334764500,8.1937646484375,0.011453723534941673,-3.2602641582489014,2.720412015914917
1712835427354764800,8.213764892578125,-0.4888449013233185,-4.767879486083984,2.4711790084838867
1712835427374764800,8.233764892578124,-0.8162686824798584,-6.355518341064453,1.5744287967681885
1712835427394764800,8.253764892578126,-0.7521278262138367,-6.800228118896484,1.1260536909103394
1712835427414764800,8.273764892578125,-0.2854267954826355,-5.648747444152832,1.123610258102417
1712835427434764800,8.293764892578125,0.21609358489513397,-3.1234302520751953,1.6562848091125488
1712835427454764500,8.3137646484375,0.4867068827152252,-0.5382486581802368,1.4626405239105225
1712835427474764500,8.3337646484375,0.4060726761817932,0.2833651304244995,0.4602105915546417
1712835427494764800,8.353764892578125,0.28756481409072876,0.8190939426422119,-0.048029281198978424
1712835427514764800,8.373764892578125,0.327271044254303,0.9565386176109314,-0.32536208629608154
1712835427534764800,8.393764892578124,0.5874996781349182,0.8142070174217224,-0.3986659348011017
1712835427554764800,8.413764892578126,0.6809620261192322,0.3102431893348694,-0.5263367891311646
1712835427574764800,8.433764892578125,0.6815729141235352,-0.24930937588214874,-0.758465588092804
1712835427594764500,8.4537646484375,0.6937901973724365,-0.46066874265670776,-0.8769733905792236
1712835427614764500,8.4737646484375,0.6302602291107178,-0.5455790162086487,-0.8671995997428894
1712835427634764500,8.4937646484375,0.6052147150039673,-0.6512587070465088,-0.8635343909263611
1712835427654764500,8.5137646484375,0.5593998432159424,-0.6879106163978577,-0.8024478554725647
1712835427674764500,8.5337646484375,0.3871358633041382,-0.6286566853523254,-0.6564510464668274
1712835427694764500,8.5537646484375,0.26801711320877075,-0.44539710879325867,-0.5080108046531677
1712835427714764500,8.5737646484375,0.14095716178417206,-0.17172949016094208,-0.3131448030471802
1712835427734764500,8.5937646484375,-0.011759156361222267,0.15874861180782318,-0.13355042040348053
1712835427754764500,8.6137646484375,-0.13698652386665344,0.359112411737442,-0.030925052240490913
1712835427774764500,8.6337646484375,-0.23350323736667633,0.45257478952407837,0.06986771523952484
1712835427794764500,8.6537646484375,-0.3868304193019867,0.4623486399650574,0.22502748668193817
1712835427814764500,8.6737646484375,-0.5566509366035461,0.45807257294654846,0.35758525133132935
1712835427834764500,8.6937646484375,-0.727082371711731,0.39759692549705505,0.44982588291168213
1712835427854764800,8.713764892578125,-0.8321511745452881,0.23999367654323578,0.43394339084625244
1712835427874764800,8.733764892578124,-0.9207266569137573,-0.016569720581173897,0.30749428272247314
1712835427894764800,8.753764892578126,-0.9408851861953735,-0.0342848114669323,0.2738966941833496
1712835427914764800,8.773764892578125,-0.7991644740104675,0.3102431893348694,0.2140319049358368
1712835427934764800,8.793764892578125,-0.7130324840545654,0.9461538791656494,0.0069485921412706375
1712835427954764500,8.8137646484375,-0.6378960609436035,1.408578872680664,-0.4896848499774933
1712835427974764500,8.8337646484375,-0.24144448339939117,2.2857813835144043,-1.0089203119277954
1712835427994764800,8.853764892578125,0.3474296033382416,3.3670129776000977,-1.3919328451156616
1712835428014764800,8.873764892578125,0.5777258276939392,4.175798416137695,-1.3937654495239258
1712835428034764800,8.893764892578124,0.6418666839599609,3.9974257946014404,-1.594129204750061
1712835428054764800,8.913764892578126,0.6369797587394714,3.326084852218628,-1.8164842128753662
1712835428074764800,8.933764892578125,0.42012256383895874,3.175201177597046,-1.9606484174728394
1712835428094764500,8.9537646484375,0.45494189858436584,3.3419673442840576,-2.3790910243988037
1712835428114764500,8.9737646484375,-0.2096794992685318,4.009643077850342,-3.111518383026123
1712835428134764500,8.9937646484375,-0.6495024561882019,3.778736114501953,-2.3192262649536133
1712835428154764500,9.0137646484375,-0.49617528915405273,2.039602756500244,-1.091387152671814
1712835428174764500,9.0337646484375,-0.44180828332901,-0.32016974687576294,-0.7242571115493774
1712835428194764500,9.0537646484375,-0.3874412775039673,-1.8186222314834595,-1.129260778427124
1712835428214764500,9.0737646484375,-0.15836681425571442,-1.91636061668396,-0.93805992603302
1712835428234764500,9.0937646484375,-0.14187344908714294,-0.9573022127151489,-0.2154063582420349
1712835428254764500,9.1137646484375,-0.009926560334861279,0.31696268916130066,0.39240455627441406
1712835428274764500,9.1337646484375,0.1941024363040924,1.5050956010818481,1.0588585138320923
1712835428294764500,9.1537646484375,0.4072943925857544,1.3920855522155762,1.4308754205703735
1712835428314764500,9.1737646484375,0.7469354867935181,0.4672355651855469,1.6923258304595947
1712835428334764500,9.1937646484375,0.9949467778205872,-0.5474116206169128,2.0160844326019287
1712835428354764800,9.213764892578125,1.1042916774749756,-1.6188693046569824,2.3758840560913086
1712835428374764800,9.233764892578124,0.9301950335502625,-2.814943313598633,2.556089162826538
1712835428394764800,9.253764892578126,0.3376557528972626,-3.901672601699829,2.661768913269043
1712835428414764800,9.273764892578125,-0.5523748993873596,-4.64937162399292,2.6605472564697266
1712835428434764800,9.293764892578125,-1.3965907096862793,-5.837504863739014,2.4992787837982178
1712835428454764500,9.3137646484375,-1.6720908880233765,-7.1129913330078125,2.148031234741211
1712835428474764500,9.3337646484375,-0.9671524167060852,-7.006089687347412,2.1180989742279053
1712835428494764800,9.353764892578125,-0.09056077152490616,-5.707390308380127,1.743638515472412
1712835428514764800,9.373764892578125,0.06520986557006836,-2.915736198425293,1.039921760559082
1712835428534764800,9.393764892578124,0.06765332818031311,-0.6347653269767761,0.8242862820625305
1712835428554764800,9.413764892578126,0.2802344262599945,0.7402923107147217,0.4828126132488251
1712835428574764800,9.433764892578125,0.7768678665161133,1.1562916040420532,-0.0541379339993
1712835428594764500,9.4537646484375,0.9766207933425903,1.0518336296081543,-0.3968333303928375
1712835428614764500,9.4737646484375,0.9668469429016113,0.7396814823150635,-0.5855907201766968
1712835428634764500,9.4937646484375,0.9747881889343262,0.45868343114852905,-0.747469961643219
1712835428654764500,9.5137646484375,0.974177360534668,0.18929186463356018,-0.8928559422492981
1712835428674764500,9.5337646484375,0.9363036751747131,-0.004963280167430639,-0.8818603157997131
1712835428694764500,9.5537646484375,0.8428413271903992,-0.23831380903720856,-0.7804567217826843
1712835428714764500,9.5737646484375,0.6436992287635803,-0.5327508449554443,-0.7596873044967651
1712835428734764500,9.5937646484375,0.35475999116897583,-0.965854287147522,-0.653396725654602
1712835428754764500,9.6137646484375,0.2154827117919922,-0.930424153804779,-0.5758168697357178
1712835428774764500,9.6337646484375,0.03955352306365967,-0.3336087763309479,-0.41515928506851196
1712835428794764500,9.6537646484375,-0.1339322030544281,0.3652210533618927,-0.24472789466381073
1712835428814764500,9.6737646484375,-0.2762638032436371,0.7903832793235779,-0.12622003257274628
1712835428834764500,9.6937646484375,-0.4570799171924591,0.8032114505767822,-0.05535966157913208
1712835428854764800,9.713764892578125,-0.6568328738212585,0.5521458387374878,0.04909829422831535
1712835428874764800,9.733764892578124,-0.7924449443817139,0.2436588704586029,0.16699528694152832
1712835428894764800,9.753764892578126,-0.8810204267501831,0.08116871863603592,0.22686007618904114
1712835428914764800,9.773764892578125,-0.8987354636192322,0.009697485715150833,0.17493653297424316
1712835428934764800,9.793764892578125,-0.8333728909492493,0.1275944709777832,0.13400855660438538
1712835428954764500,9.8137646484375,-0.726471483707428,0.6138432025909424,0.13523028790950775
1712835428974764500,9.8337646484375,-0.48456886410713196,1.1972194910049438,0.1071304902434349
1712835428994764800,9.853764892578125,-0.3770565688610077,1.5631277561187744,-0.17692184448242188
1712835429014764800,9.873764892578125,-0.2652682363986969,1.7647132873535156,-0.7548003792762756
1712835429034764800,9.893764892578124,0.1745547503232956,2.5093581676483154,-1.260596752166748
1712835429054764800,9.913764892578126,0.5960517525672913,3.169703483581543,-1.5751924514770508
1712835429074764800,9.933764892578125,0.7872526049613953,3.4788012504577637,-1.6814829111099243
1712835429094764500,9.9537646484375,0.8190175890922546,3.2521703243255615,-1.7859408855438232
1712835429114764500,9.9737646484375,0.7206682562828064,2.8978683948516846,-1.8568012714385986
1712835429134764500,9.9937646484375,0.546571671962738,2.645581007003784,-2.0272326469421387
1712835429154764500,10.0137646484375,0.47510045766830444,2.591824769973755,-2.3986387252807617
1712835429174764500,10.0337646484375,-0.005650503560900688,2.868546724319458,-3.1823787689208984
1712835429194764500,10.0537646484375,-0.2921462953090668,3.164205551147461,-2.394362688064575
1712835429214764500,10.0737646484375,-0.2292271852493286,1.2711342573165894,-0.6863834857940674
1712835429234764500,10.0937646484375,-0.005039638374000788,-0.7410559058189392,-0.748080849647522
1712835429254764500,10.1137646484375,0.2399173229932785,-2.041588068008423,-1.2459360361099243
1712835429274764500,10.1337646484375,0.3969096839427948,-1.4820353984832764,-0.8323802351951599
1712835429294764500,10.1537646484375,0.337044894695282,0.19540052115917206,0.025274548679590225
1712835429314764500,10.1737646484375,0.3926336467266083,1.6926312446594238,0.8945357799530029
1712835429334764500,10.1937646484375,0.5325217843055725,2.092747926712036,1.4968489408493042
1712835429354764800,10.213764892578125,0.7560984492301941,1.362153172492981,1.922011137008667
1712835429374764800,10.233764892578124,1.0377073287963867,-0.14729487895965576,2.175520181655884
1712835429394764800,10.253764892578126,1.115287184715271,-1.6200909614562988,2.521880865097046
1712835429414764800,10.273764892578125,0.8874344825744629,-3.1380910873413086,2.809598445892334
1712835429434764800,10.293764892578125,0.0682641938328743,-4.469166278839111,2.7662270069122314
1712835429454764500,10.3137646484375,-1.0587822198867798,-5.54245662689209,2.430251121520996
1712835429474764500,10.3337646484375,-1.7276796102523804,-6.6469011306762695,2.1242074966430664
1712835429494764800,10.353764892578125,-1.2731958627700806,-6.838712692260742,1.9800432920455933
1712835429514764800,10.373764892578125,-0.42959097027778625,-5.567502021789551,2.2054526805877686
1712835429534764800,10.393764892578124,0.19776763021945953,-2.91023850440979,1.7564666271209717
1712835429554764800,10.413764892578126,0.20570887625217438,-0.6787476539611816,1.0961213111877441
1712835429574764800,10.433764892578125,0.14584407210350037,0.6993643641471863,0.2952769994735718
1712835429594764500,10.4537646484375,0.1696678251028061,1.663920521736145,-0.18241962790489197
1712835429614764500,10.4737646484375,0.346818745136261,1.9003254175186157,-0.34490978717803955
1712835429634764500,10.4937646484375,0.5581781268119812,1.1898891925811768,-0.5568800568580627
1712835429654764500,10.5137646484375,0.6809620261192322,0.0720057412981987,-0.9246209263801575
1712835429674764500,10.5337646484375,0.8691084980964661,-0.9511935710906982,-1.120708703994751
1712835429694764500,10.5537646484375,0.9051495790481567,-1.2902237176895142,-0.9460011720657349
1712835429714764500,10.5737646484375,0.7414376735687256,-1.5052483081817627,-0.7352526783943176
1712835429734764500,10.5937646484375,0.4586070775985718,-1.44294011592865,-0.6283512711524963
1712835429754764500,10.6137646484375,0.16233743727207184,-1.0947468280792236,-0.5287802219390869
1712835429774764500,10.6337646484375,-0.058795779943466187,-0.4594470262527466,-0.36629006266593933
1712835429794764500,10.6537646484375,-0.19318613409996033,0.25098925828933716,-0.2264019250869751
1712835429814764500,10.6737646484375,-0.30802878737449646,0.7134142518043518,-0.16959145665168762
1712835429834764500,10.6937646484375,-0.46563202142715454,0.8545241355895996,-0.1146135926246643
1712835429854764800,10.713764892578125,-0.594524621963501,0.6584363579750061,-0.026648996397852898
1712835429874764800,10.733764892578124,-0.6812674403190613,0.4556291103363037,0.07170030474662781
1712835429894764800,10.753764892578126,-0.7826710939407349,0.2955824136734009,0.17004960775375366
1712835429914764800,10.773764892578125,-0.9524916410446167,0.1776854246854782,0.1987602859735489
1712835429934764800,10.793764892578125,-1.0520626306533813,0.12331841886043549,0.1633300930261612
1712835429954764500,10.8137646484375,-0.927446186542511,0.2839759886264801,0.06498079001903534
1712835429974764500,10.8337646484375,-0.8095491528511047,0.8838456273078918,-0.010766499675810337
1712835429994764800,10.853764892578125,-0.6916521787643433,1.2619712352752686,-0.28015807271003723
1712835430014764800,10.873764892578125,-0.36850446462631226,1.4055246114730835,-0.8861364126205444
1712835430034764800,10.893764892578124,0.1898263692855835,2.449493169784546,-1.3253484964370728
1712835430054764800,10.913764892578126,0.7756461501121521,3.5539376735687256,-1.4346933364868164
1712835430074764800,10.933764892578125,1.0114401578903198,3.920456886291504,-1.614898681640625
1712835430094764500,10.9537646484375,0.9680687189102173,3.7402515411376953,-1.7199674844741821
1712835430114764500,10.9737646484375,0.8807149529457092,3.2949306964874268,-1.785330057144165
1712835430134764500,10.9937646484375,0.7499898076057434,3.318143606185913,-1.887344479560852
1712835430154764500,11.0137646484375,0.37308594584465027,3.6199111938476562,-2.5592963695526123
1712835430174764500,11.0337646484375,0.0029016099870204926,3.5979199409484863,-2.1402428150177
1712835430194764500,11.0537646484375,-0.056352317333221436,2.329152822494507,-1.3711633682250977
1712835430214764500,11.0737646484375,-0.15347988903522491,0.6162866950035095,-0.909960150718689
1712835430234764500,11.0937646484375,-0.09422596544027328,-0.7441102266311646,-0.7609090209007263
1712835430254764500,11.1137646484375,0.05849034711718559,-1.4117859601974487,-0.5385540723800659
1712835430274764500,11.1337646484375,0.08659014850854874,-1.0177778005599976,-0.06818783283233643
1712835430294764500,11.1537646484375,0.13057245314121246,-0.17172949016094208,0.629420280456543
1712835430314764500,11.1737646484375,0.27718010544776917,0.5680283308029175,1.2793809175491333
1712835430334764500,11.1937646484375,0.48059824109077454,0.8294786214828491,1.7369189262390137
1712835430354764800,11.213764892578125,0.6876815557479858,0.4195880591869354,2.2775347232818604
1712835430374764800,11.233764892578124,0.831234872341156,-0.823522686958313,2.6654341220855713
1712835430394764800,11.253764892578126,0.630871057510376,-2.5870907306671143,2.8218157291412354
1712835430414764800,11.273764892578125,0.013286318629980087,-4.364097595214844,2.8089873790740967
1712835430434764800,11.293764892578125,-0.8364272117614746,-6.125833034515381,2.468735456466675
1712835430454764500,11.3137646484375,-1.4326317310333252,-8.15207290649414,1.8621463775634766
1712835430474764500,11.3337646484375,-1.0123564004898071,-8.553411483764648,1.5915330648422241
1712835430494764800,11.353764892578125,-0.42470407485961914,-6.4294328689575195,1.4748578071594238
1712835430514764800,11.373764892578125,0.09025534242391586,-2.2303452491760254,1.49196195602417
1712835430534764800,11.393764892578124,0.2716823220252991,0.5594761967658997,1.2525027990341187
1712835430554764800,11.413764892578126,0.15012013912200928,1.7195093631744385,0.334983229637146
1712835430574764800,11.433764892578125,0.09147707372903824,1.7726545333862305,-0.34063372015953064
1712835430594764500,11.4537646484375,0.30894508957862854,1.7317266464233398,-0.5373323559761047
1712835430614764500,11.4737646484375,0.670577347278595,1.0939832925796509,-0.6521750092506409
1712835430634764500,11.4937646484375,0.737772524356842,0.04024074971675873,-0.9649379849433899
1712835430654764500,11.5137646484375,0.7585419416427612,-0.6879106163978577,-1.1744648218154907
1712835430674764500,11.5337646484375,0.688903272151947,-0.9695194959640503,-1.1304824352264404
1712835430694764500,11.5537646484375,0.6436992287635803,-1.063592791557312,-0.966770589351654
1712835430714764500,11.5737646484375,0.5477933883666992,-1.0959686040878296,-0.8000044226646423
1712835430734764500,11.5937646484375,0.30894508957862854,-0.8546768426895142,-0.6045275330543518
1712835430754764500,11.6137646484375,0.048716504126787186,-0.36048686504364014,-0.37606391310691833
1712835430774764500,11.6337646484375,-0.16019940376281738,0.18745927512645721,-0.20257818698883057
1712835430794764500,11.6537646484375,-0.3562871515750885,0.6425538659095764,-0.09628763794898987
1712835430814764500,11.6737646484375,-0.5578727126121521,0.8930086493492126,0.02710714563727379
1712835430834764500,11.6937646484375,-0.7020368576049805,0.8972846865653992,0.17982345819473267
1712835430854764800,11.713764892578125,-0.7405213713645935,0.5900194644927979,0.3239876627922058
1712835430874764800,11.733764892578124,-0.7704538106918335,0.2540435791015625,0.4510476291179657
1712835430894764800,11.753764892578126,-0.8400924205780029,-0.07704538106918335,0.43272167444229126
1712835430914764800,11.773764892578125,-0.755182147026062,-0.1301906555891037,0.28611400723457336
1712835430934764800,11.793764892578125,-0.623235285282135,0.22533291578292847,0.1382846236228943
1712835430954764500,11.8137646484375,-0.5761986374855042,0.8942303657531738,-0.07857254147529602
1712835430974764500,11.8337646484375,-0.31413745880126953,1.5454126596450806,-0.6020840406417847
1712835430994764800,11.853764892578125,0.3364340364933014,2.8386144638061523,-1.0907762050628662
1712835431014764800,11.873764892578125,0.9558513760566711,3.6907713413238525,-1.4230870008468628
1712835431034764800,11.893764892578124,1.1464413404464722,3.8239400386810303,-1.5984052419662476
1712835431054764800,11.913764892578126,1.2014192342758179,3.5960874557495117,-1.7437912225723267
1712835431074764800,11.933764892578125,0.9863946437835693,3.2405638694763184,-1.7077502012252808
1712835431094764500,11.9537646484375,0.679129421710968,2.8215103149414062,-1.355280876159668
1712835431114764500,11.9737646484375,0.33460143208503723,3.1440470218658447,-2.5348618030548096
1712835431134764500,11.9937646484375,-0.3251330256462097,3.092123508453369,-2.3644301891326904
1712835431154764500,12.0137646484375,0.0731511116027832,1.9675205945968628,-1.088943600654602
1712835431174764500,12.0337646484375,0.17638733983039856,0.0005345070967450738,-0.3131448030471802
1712835431194764500,12.0537646484375,0.16722436249256134,-1.5064700841903687,-1.0186941623687744
1712835431214764500,12.0737646484375,0.5117523670196533,-1.5944346189498901,-0.6772204637527466
1712835431234764500,12.0937646484375,0.31261029839515686,-0.2719113826751709,0.41745004057884216
1712835431254764500,12.1137646484375,0.15561792254447937,0.8581892848014832,1.4553101062774658
1712835431274764500,12.1337646484375,0.32421672344207764,0.8337547183036804,2.003256320953369
1712835431294764500,12.1537646484375,0.4830417037010193,-0.3311653137207031,2.1272618770599365
1712835431314764500,12.1737646484375,0.4329507350921631,-1.6280322074890137,2.538985013961792
1712835431334764500,12.1937646484375,0.05054909735918045,-3.552257776260376,2.717968463897705
1712835431354764800,12.213764892578125,-0.6531676650047302,-5.312160491943359,2.4797310829162598
1712835431374764800,12.233764892578124,-1.4637858867645264,-6.832603931427002,1.9311741590499878
1712835431394764800,12.253764892578126,-1.716684103012085,-7.666435241699219,1.7570775747299194
1712835431414764800,12.273764892578125,-0.9683741331100464,-6.7415852546691895,1.666669487953186
1712835431434764800,12.293764892578125,-0.16752979159355164,-3.8833467960357666,1.2964850664138794
1712835431454764500,12.3137646484375,0.0988074541091919,-0.40569087862968445,1.2439507246017456
1712835431474764500,12.3337646484375,-0.02275473065674305,1.2717450857162476,0.7515933513641357
1712835431494764800,12.353764892578125,0.013897184282541275,1.5478562116622925,-0.11888964474201202
1712835431514764800,12.373764892578125,0.20387627184391022,1.454393744468689,-0.5996406078338623
1712835431534764800,12.393764892578124,0.4879286289215088,1.4495068788528442,-0.6210208535194397
1712835431554764800,12.413764892578126,0.7371616363525391,0.621173620223999,-0.8763625621795654
1712835431574764800,12.433764892578125,0.8355109095573425,-0.17234036326408386,-1.1005500555038452
1712835431594764500,12.4537646484375,0.7096726894378662,-0.45150578022003174,-1.0632872581481934
1712835431614764500,12.4737646484375,0.4683809280395508,-0.4447862505912781,-0.8525388240814209
1712835431634764500,12.4937646484375,0.22770002484321594,-0.4991532564163208,-0.5935319662094116
1712835431654764500,12.5137646484375,-0.07101308554410934,-0.3531564772129059,-0.3968333303928375
1712835431674764500,12.5337646484375,-0.28359419107437134,-0.017180584371089935,-0.22395847737789154
1712835431694764500,12.5537646484375,-0.4521929919719696,0.3401755690574646,-0.10117455571889877
1712835431714764500,12.5737646484375,-0.584750771522522,0.5851325392723083,-0.05780312418937683
1712835431734764500,12.5937646484375,-0.7105889916419983,0.6914231181144714,0.05948300287127495
1712835431754764500,12.6137646484375,-0.755793035030365,0.5167156457901001,0.17127133905887604
1712835431774764500,12.6337646484375,-0.8132143616676331,0.33162346482276917,0.2134210467338562
1712835431794731300,12.653731201171874,-0.7692320346832275,-0.15706872940063477,0.07903069257736206
1712835431814698000,12.673697998046874,-0.633009135723114,-0.316504567861557,0.005115996580570936
1712835431834664400,12.69366455078125,-0.4381431043148041,0.026190847158432007,-0.12438743561506271
1712835431854631200,12.713631103515626,-0.05207626149058342,0.8526915311813354,-0.391946405172348
1712835431874598000,12.733597900390626,0.3700316250324249,2.139173746109009,-0.7395287156105042
1712835431894564600,12.753564697265626,0.7860308289527893,3.536222457885742,-1.0254136323928833
1712835431914531300,12.77353125,1.1213958263397217,4.25643253326416,-1.060843825340271
1712835431934497800,12.793497802734375,1.2777774333953857,4.136092185974121,-0.8983536958694458
1712835431954464300,12.81346435546875,1.2069170475006104,3.529503107070923,-0.8891907334327698
1712835431974431000,12.833430908203125,1.2081387042999268,3.446425437927246,-0.7236462235450745
1712835431994397700,12.853397705078125,0.7823656797409058,3.811722755432129,-2.067549705505371
1712835432014364200,12.8733642578125,-0.11438451707363129,4.154417991638184,-1.5965726375579834
1712835432034331000,12.893330810546875,0.3724750876426697,2.472095251083374,-0.5782603025436401
1712835432054297600,12.913297607421875,0.52702397108078,-0.29329168796539307,-0.46219590306282043
1712835432074264300,12.933264404296875,0.29367345571517944,-1.4301118850708008,-0.6882160305976868
1712835432094230800,12.953230712890624,0.5832235813140869,-1.3158800601959229,0.16577355563640594
1712835432114197500,12.973197509765624,0.35659259557724,-0.29512426257133484,1.513342261314392
1712835432134164000,12.9931640625,0.3517056703567505,-0.06360634416341782,2.1016054153442383
1712835432154130700,13.013130615234376,0.27779096364974976,-0.9255372285842896,2.471789836883545
1712835432174097400,13.033097412109376,-0.13026700913906097,-2.5406649112701416,2.6214518547058105
1712835432194064100,13.053064208984376,-0.8810204267501831,-4.684802055358887,2.396042585372925
1712835432214031000,13.073031005859375,-1.8272507190704346,-6.60902738571167,1.853594183921814
1712835432233997600,13.09299755859375,-1.903608798980713,-7.932161331176758,1.4589753150939941
1712835432253964300,13.11296435546875,-0.17302757501602173,-8.133135795593262,0.99166339635849
1712835432273931000,13.132930908203125,0.2893974184989929,-4.488714218139648,1.0503064393997192
1712835432293897700,13.152897705078125,0.11224649101495743,-0.14118622243404388,1.3813953399658203
1712835432313864400,13.172864501953125,0.5111414790153503,2.572888135910034,0.7296021580696106
1712835432333831000,13.192830810546875,0.3413209617137909,3.0841822624206543,-0.17264579236507416
1712835432353797600,13.212797607421875,0.32788193225860596,2.5539512634277344,-0.5892558693885803
1712835432373764400,13.232764404296875,0.6583600044250488,1.6278795003890991,-0.6790530681610107
1712835432393764400,13.252764404296874,0.7096726894378662,-0.06849326193332672,-1.0199159383773804
1712835432413764400,13.272764404296876,0.7237225770950317,-1.261513113975525,-1.2282209396362305
1712835432433764400,13.292764404296875,0.6125451326370239,-1.363527536392212,-1.1536953449249268
1712835432453764400,13.312764404296875,0.41951170563697815,-1.004949688911438,-0.9826530814170837
1712835432473764400,13.332764404296874,0.2002110779285431,-0.5645158290863037,-0.6931029558181763
1712835432493764400,13.352764404296876,-0.06123924255371094,-0.3336087763309479,-0.4231005311012268
1712835432513764400,13.372764404296875,-0.2921462953090668,-0.2658027410507202,-0.20379991829395294
1712835432533764400,13.392764404296875,-0.4625777006149292,-0.2254856377840042,-0.009544769302010536
1712835432553764400,13.412764404296874,-0.6580545902252197,-0.11736248433589935,0.09552405029535294
1712835432573764400,13.432764404296876,-0.8407033085823059,-0.052610769867897034,0.14989106357097626
1712835432593764400,13.452764404296875,-0.917061448097229,0.06956227868795395,0.19081902503967285
1712835432613764400,13.472764404296875,-0.9372199773788452,0.2839759886264801,0.26106852293014526
1712835432633764400,13.492764404296874,-0.9573785662651062,0.3139083683490753,0.22197316586971283
1712835432653764400,13.512764404296876,-0.7991644740104675,0.5087743997573853,0.060093868523836136
1712835432673764400,13.532764404296875,-0.6488916277885437,0.8636870980262756,-0.20868684351444244
1712835432693764400,13.552764404296875,-0.30253100395202637,1.0799334049224854,-0.6698901057243347
1712835432713764600,13.5727646484375,0.1592831164598465,2.131843328475952,-0.9233991503715515
1712835432733764600,13.5927646484375,0.6003278493881226,3.4476470947265625,-0.8983536958694458
1712835432753764600,13.6127646484375,1.1385000944137573,4.0951642990112305,-0.8617017865180969
1712835432773764600,13.6327646484375,1.4567608833312988,4.085390567779541,-0.9319512844085693
1712835432793764600,13.6527646484375,1.4237741231918335,3.831270456314087,-1.2172253131866455
1712835432813764400,13.672764404296874,1.2741122245788574,3.8935787677764893,-1.510440707206726
1712835432833764400,13.692764404296875,0.6198754906654358,4.023082256317139,-2.1604013442993164
1712835432853764400,13.712764404296875,0.1647808998823166,4.913723468780518,-1.4750105142593384
1712835432873764400,13.732764404296875,0.34376442432403564,2.969339609146118,-0.6979898810386658
1712835432893764400,13.752764404296874,0.03405573591589928,-0.5803983211517334,-0.8384889364242554
1712835432913764400,13.772764404296876,-0.10094548016786575,-2.011655569076538,-0.44509169459342957
1712835432933764400,13.792764404296875,0.48915034532546997,-2.0043251514434814,0.13950635492801666
1712835432953764400,13.812764404296875,0.6382014751434326,-0.6188828349113464,1.1132255792617798
1712835432973764400,13.832764404296874,0.3119994103908539,0.2393828183412552,1.9666043519973755
1712835432993764400,13.852764404296876,0.22892175614833832,-0.43073636293411255,2.424753189086914
1712835433013764400,13.872764404296875,0.09392052888870239,-1.9352974891662598,2.572582721710205
1712835433033764400,13.892764404296875,-0.4155410826206207,-3.940768003463745,2.405205488204956
1712835433053764400,13.912764404296874,-1.410029649734497,-6.393392086029053,1.780901312828064
1712835433073764400,13.932764404296876,-1.8254181146621704,-6.772128582000732,1.701488733291626
1712835433093764400,13.952764404296875,-0.9054549932479858,-6.249838829040527,1.684995412826538
1712835433113764400,13.972764404296875,0.3119994103908539,-5.2987213134765625,1.064967155456543
1712835433133764400,13.992764404296874,0.027947084978222847,-1.4594334363937378,0.7271587252616882
1712835433153764400,14.012764404296876,0.05054909735918045,1.131856918334961,0.7436521053314209
1712835433173764400,14.032764404296875,0.3816380500793457,1.6675857305526733,0.1480584591627121
1712835433193764400,14.052764404296875,0.5044219493865967,0.9828058481216431,-0.2679407596588135
1712835433213764600,14.0727646484375,0.7365507483482361,0.2583196461200714,-0.443869948387146
1712835433233764600,14.0927646484375,0.8752171993255615,-0.5565745830535889,-0.7877870798110962
1712835433253764600,14.1127646484375,0.9020952582359314,-1.059316635131836,-1.1433106660842896
1712835433273764600,14.1327646484375,0.8678867816925049,-0.8607854843139648,-1.194623351097107
1712835433293764600,14.1527646484375,0.7664831876754761,-0.18883371353149414,-1.1237629652023315
1712835433313764400,14.172764404296874,0.5703954100608826,0.5044983625411987,-1.0125855207443237
1712835433333764400,14.192764404296875,0.3010038435459137,0.9223301410675049,-0.8568148612976074
1712835433353764400,14.212764404296875,-0.027030786499381065,0.8911760449409485,-0.6515641212463379
1712835433373764400,14.232764404296875,-0.2713768780231476,0.3798818290233612,-0.3772856593132019
1712835433393764400,14.252764404296874,-0.4973970353603363,-0.09109527617692947,-0.1555415689945221
1712835433413764400,14.272764404296876,-0.6824892163276672,-0.45578181743621826,-0.08223773539066315
1712835433433764400,14.292764404296875,-0.77472984790802,-0.4948772192001343,-0.04864014685153961
1712835433453764400,14.312764404296875,-0.8083274364471436,-0.2853504419326782,0.007559457328170538
1712835433473764400,14.332764404296874,-0.8150469660758972,-0.03672827407717705,0.05337435007095337
1712835433493764400,14.352764404296876,-0.8095491528511047,0.1477530300617218,0.014278975315392017
1712835433513764400,14.372764404296875,-0.7979426980018616,0.4647921025753021,-0.08284860104322433
1712835433533764400,14.392764404296875,-0.5419901609420776,0.8630762100219727,-0.46097418665885925
1712835433553764400,14.412764404296874,-0.03191770985722542,1.3395510911941528,-0.6802747845649719
1712835433573764400,14.432764404296876,0.4940372705459595,2.2308034896850586,-0.9056841135025024
1712835433593764400,14.452764404296875,0.8281805515289307,3.097010374069214,-1.2178362607955933
1712835433613764400,14.472764404296875,0.8263479471206665,3.5759286880493164,-1.2862530946731567
1712835433633764400,14.492764404296874,0.7267768979072571,3.5514941215515137,-1.3821589946746826
1712835433653764400,14.512764404296876,0.699288010597229,3.4977381229400635,-1.3406201601028442
1712835433673764400,14.532764404296875,0.7328855991363525,3.795229434967041,-1.3644438982009888
1712835433693764400,14.552764404296875,0.3217732608318329,3.6205220222473145,-2.0455586910247803
1712835433713764600,14.5727646484375,-0.1944078654050827,3.111671209335327,-1.5293774604797363
1712835433733764600,14.5927646484375,-0.11499538272619247,1.8496235609054565,-1.3235158920288086
1712835433753764600,14.6127646484375,-0.18707747757434845,0.2381610870361328,-1.0040334463119507
1712835433773764600,14.6327646484375,-0.3306308090686798,-0.7074583172798157,-0.63507080078125
1712835433793764600,14.6527646484375,-0.2353358417749405,-1.1796571016311646,-0.13782647252082825
1712835433813764400,14.672764404296874,-0.21212296187877655,-1.317712664604187,0.32704198360443115
1712835433833764400,14.692764404296875,-0.11438451707363129,-1.2077569961547852,1.1199450492858887
1712835433853764400,14.712764404296875,-0.05696318298578262,-1.3030519485473633,1.7075974941253662
1712835433873764400,14.732764404296875,-0.17119498550891876,-1.9365191459655762,2.114433765411377
1712835433893764400,14.752764404296874,-0.5138903856277466,-2.846097469329834,2.6214518547058105
1712835433913764400,14.772764404296876,-0.9005680680274963,-3.9279398918151855,2.7662270069122314
1712835433933764400,14.792764404296875,-1.4735597372055054,-5.5106916427612305,2.3422863483428955
1712835433953764400,14.812764404296875,-1.6910277605056763,-6.4599761962890625,1.8022814989089966
1712835433973764400,14.832764404296874,-0.9677632451057434,-5.825898170471191,1.6709455251693726
1712835433993764400,14.852764404296876,0.26190847158432007,-3.4667365550994873,1.967826008796692
1712835434013764400,14.872764404296875,0.34926220774650574,-1.3506994247436523,1.4809664487838745
1712835434033764400,14.892764404296875,0.22159136831760406,0.15386168658733368,0.6984480619430542
1712835434053764400,14.912764404296874,0.33399057388305664,1.4592807292938232,0.2341904640197754
1712835434073764400,14.932764404296876,0.5636758804321289,1.941253423690796,0.015500705689191818
1712835434093764400,14.952764404296875,0.8672759532928467,1.5973362922668457,-0.12194397300481796
1712835434113764400,14.972764404296875,0.9375254511833191,0.5264894962310791,-0.4322635233402252
1712835434133764400,14.992764404296874,0.8336783647537231,-0.5229769945144653,-0.8195520639419556
1712835434153764400,15.012764404296876,0.7701483368873596,-0.8992699980735779,-0.9777661561965942
1712835434173764400,15.032764404296875,0.7066183686256409,-0.6921866536140442,-1.0003682374954224
1712835434193764400,15.052764404296875,0.6724098920822144,-0.3720932900905609,-0.96799236536026
1712835434213764600,15.0727646484375,0.5600107312202454,-0.0746019184589386,-0.8971319794654846
1712835434233764600,15.0927646484375,0.32788193225860596,0.10071640461683273,-0.7780132293701172
1712835434253764600,15.1127646484375,0.07742717117071152,0.17890715599060059,-0.614912211894989
1712835434273764600,15.1327646484375,-0.12476922571659088,0.2851977050304413,-0.44081562757492065
1712835434293764600,15.1527646484375,-0.26893341541290283,0.3908773958683014,-0.321086049079895
1712835434313764400,15.172764404296874,-0.3459024429321289,0.45807257294654846,-0.18303050100803375
1712835434333764400,15.192764404296875,-0.44180828332901,0.4250858426094055,-0.018096882849931717
1712835434353764400,15.212764404296875,-0.5731443166732788,0.3059671223163605,0.13584116101264954
1712835434373764400,15.232764404296875,-0.7221954464912415,0.09827294945716858,0.2934443950653076
1712835434393764400,15.252764404296874,-0.7631233930587769,0.09399688988924026,0.28122708201408386
1712835434413764400,15.272764404296876,-0.6440047025680542,0.3084105849266052,0.05642867833375931
1712835434433764400,15.292764404296875,-0.4882340431213379,0.9333257079124451,-0.025427265092730522
1712835434453764400,15.312764404296875,-0.3452915847301483,1.3841443061828613,-0.20257818698883057
1712835434473764400,15.332764404296874,0.004123340360820293,1.597947120666504,-0.9661597609519958
1712835434493764400,15.352764404296876,0.4518875777721405,2.4067327976226807,-1.671098232269287
1712835434513764400,15.372764404296875,0.7689266204833984,2.929633378982544,-1.888566255569458
1712835434533764400,15.392764404296875,0.9436340928077698,2.505082130432129,-2.1164190769195557
1712835434553764400,15.412764404296874,0.9552405476570129,2.0579285621643066,-2.1487948894500732
1712835434573764400,15.432764404296876,1.115287184715271,1.827021598815918,-2.151238203048706
1712835434593764400,15.452764404296875,1.0560332536697388,1.5484670400619507,-2.2300398349761963
1712835434613764400,15.472764404296875,0.9863946437835693,1.6779705286026,-2.2227096557617188
1712835434633764400,15.492764404296874,0.8746063113212585,2.6248116493225098,-2.4432318210601807
1712835434653764400,15.512764404296876,0.4763221740722656,3.245450735092163,-2.47499680519104
1712835434673764400,15.532764404296875,0.5911648273468018,3.1831424236297607,-1.624672532081604
1712835434693764400,15.552764404296875,0.6565274000167847,2.0432679653167725,-1.0596221685409546
1712835434713764600,15.5727646484375,0.6583600044250488,0.5802456140518188,-1.2923617362976074
1712835434733764600,15.5927646484375,0.7359399199485779,-0.2419789880514145,-1.5189927816390991
1712835434753764600,15.6127646484375,0.6937901973724365,0.15508341789245605,-1.1304824352264404
1712835434773764600,15.6327646484375,0.5251913666725159,0.9931905269622803,-0.6711118221282959
1712835434793764600,15.6527646484375,0.4763221740722656,1.5386931896209717,-0.3485749661922455
1712835434813764400,15.672764404296874,0.4915938079357147,1.4977651834487915,-0.10606148093938828
1712835434833764400,15.692764404296875,0.46532660722732544,1.1129201650619507,0.14133894443511963
1712835434853764400,15.712764404296875,0.42500948905944824,0.5216025710105896,0.47303876280784607
1712835434873764400,15.732764404296875,0.5386304259300232,-0.21204659342765808,0.6819546818733215
1712835434893764400,15.752764404296874,0.6082690954208374,-0.7129560708999634,0.9446267485618591
1712835434913764400,15.772764404296876,0.5221370458602905,-1.0758100748062134,1.5121206045150757
1712835434933764400,15.792764404296875,0.508698046207428,-1.4924201965332031,2.02524733543396
1712835434953764400,15.812764404296875,0.46471574902534485,-1.7398205995559692,2.3056344985961914
1712835434973764400,15.832764404296874,0.3095559775829315,-2.18758487701416,2.686814308166504
1712835434993764400,15.852764404296876,0.012675453908741474,-3.3054680824279785,2.672764539718628
1712835435013764400,15.872764404296875,-0.8242099285125732,-4.13502311706543,2.6629905700683594
1712835435033764400,15.892764404296875,-1.6977472305297852,-5.52657413482666,2.1889593601226807
1712835435053764400,15.912764404296874,-2.1277964115142822,-7.164303779602051,1.4296537637710571
1712835435073764400,15.932764404296876,-1.4301882982254028,-7.74218225479126,1.6086372137069702
1712835435093764400,15.952764404296875,0.06582073122262955,-5.780083179473877,1.4693599939346313
1712835435113764400,15.972764404296875,0.154396191239357,-2.6023623943328857,1.4314863681793213
1712835435133764400,15.992764404296874,0.0933096632361412,0.1825723499059677,1.045419454574585
1712835435153764400,16.012764404296874,0.28267788887023926,1.63704252243042,0.3148246705532074
1712835435173764400,16.032764404296874,0.346818745136261,2.2839488983154297,-0.3027600944042206
1712835435193764400,16.052764404296877,0.2551889419555664,2.522186279296875,-0.39561161398887634
1712835435213764600,16.0727646484375,0.3352122902870178,1.7934240102767944,-0.3375793993473053
1712835435233764600,16.0927646484375,0.40424007177352905,0.13431400060653687,-0.615523099899292
1712835435253764600,16.1127646484375,0.3859141170978546,-1.4356096982955933,-0.9930378198623657
1712835435273764600,16.1327646484375,0.38347065448760986,-2.123443841934204,-1.0571786165237427
1712835435293764600,16.1527646484375,0.3352122902870178,-1.8949803113937378,-0.8794168829917908
1712835435313764400,16.172764404296874,0.36942076683044434,-1.2780064344406128,-0.7431939244270325
1712835435333764400,16.192764404296874,0.40851613879203796,-0.6995170712471008,-0.7291440367698669
1712835435353764400,16.212764404296873,0.2912299931049347,-0.13263411819934845,-0.7004333734512329
1712835435373764400,16.232764404296876,0.12079860270023346,0.4556291103363037,-0.6173557043075562
1712835435393764400,16.252764404296876,-0.024587325751781464,0.7806094288825989,-0.5245041847229004
1712835435413764400,16.272764404296876,-0.09239336848258972,0.7464009523391724,-0.36995527148246765
1712835435433764400,16.292764404296875,-0.1235474944114685,0.5057200789451599,-0.17631098628044128
1712835435453764400,16.312764404296875,-0.15164729952812195,0.18562667071819305,0.017333300784230232
1712835435473764400,16.332764404296874,-0.2054034322500229,-0.11308643221855164,0.13461942970752716
1712835435493764400,16.352764404296874,-0.2866485118865967,-0.34582608938217163,0.23541219532489777
1712835435513764400,16.372764404296873,-0.3880521357059479,-0.3916409909725189,0.3191007375717163
1712835435533764400,16.392764404296877,-0.5071708559989929,-0.277409166097641,0.37835466861724854
1712835435553764400,16.412764404296876,-0.6104071140289307,-0.028787024319171906,0.4003458023071289
1712835435573764400,16.432764404296876,-0.6861543655395508,0.24060454964637756,0.44982588291168213
1712835435593764400,16.452764404296875,-0.764955997467041,0.47395506501197815,0.5121341347694397
1712835435613764400,16.472764404296875,-0.8358163833618164,0.5521458387374878,0.5402339696884155
1712835435633764400,16.492764404296874,-0.9469938278198242,0.47884199023246765,0.5616142153739929
1712835435653764400,16.512764404296874,-0.9836457371711731,0.22594378888607025,0.5781075954437256
1712835435673764400,16.532764404296874,-0.9030115604400635,0.03413209691643715,0.5677229166030884
1712835435693764400,16.552764404296877,-0.7918340563774109,0.12087496370077133,0.5579490661621094
1712835435713764600,16.5727646484375,-0.7869471311569214,0.41409027576446533,0.4626540541648865
1712835435733764600,16.5927646484375,-0.7411322593688965,0.8099309802055359,0.10468703508377075
1712835435753764600,16.6127646484375,-0.35750889778137207,1.4470634460449219,-0.453643798828125
1712835435773764600,16.6327646484375,0.4164573848247528,2.5185210704803467,-0.8018369674682617
1712835435793764600,16.6527646484375,1.0468703508377075,3.6174676418304443,-0.8763625621795654
1712835435813764400,16.672764404296874,1.280220866203308,3.552104949951172,-1.1219303607940674
1712835435833764400,16.692764404296874,1.404226541519165,3.4525339603424072,-1.3198506832122803
1712835435853764400,16.712764404296873,1.2997685670852661,3.499570608139038,-1.4114805459976196
1712835435873764400,16.732764404296876,0.9863946437835693,3.1580970287323,-1.9679787158966064
1712835435893764400,16.752764404296876,0.3859141170978546,2.4922537803649902,-2.639930486679077
1712835435913764400,16.772764404296876,0.2509129047393799,2.820899248123169,-2.491490364074707
1712835435933764400,16.792764404296875,0.5832235813140869,2.3358724117279053,-1.2111166715621948
1712835435953764400,16.812764404296875,0.6375905871391296,0.8972846865653992,-1.0712286233901978
1712835435973764400,16.832764404296874,0.498924195766449,-0.49732068181037903,-1.2886966466903687
1712835435993764400,16.852764404296874,0.2845104932785034,-0.4631122052669525,-1.194623351097107
1712835436013764400,16.872764404296873,0.31749722361564636,-0.11186470091342926,-0.7541894912719727
1712835436033764400,16.892764404296877,0.1745547503232956,0.2796999216079712,0.10651962459087372
1712835436053764400,16.912764404296876,0.17638733983039856,0.29619327187538147,0.857883870601654
1712835436073764400,16.932764404296876,0.22647829353809357,0.19112446904182434,1.217072606086731
1712835436093764400,16.952764404296875,0.10186178237199783,-0.4924337565898895,1.1486557722091675
1712835436113764400,16.972764404296875,-0.006261368747800589,-1.355586290359497,1.1046733856201172
1712835436133764400,16.992764404296874,-0.06001751124858856,-1.690340518951416,1.2146291732788086
1712835436153764400,17.012764404296874,-0.0832303911447525,-1.9914970397949219,0.9317985773086548
1712835436173764400,17.032764404296874,-0.10155634582042694,-2.3586270809173584,0.7179957628250122
1712835436193764400,17.052764404296877,-0.14248432219028473,-2.9676597118377686,0.5768858790397644
1712835436213764600,17.0727646484375,-0.22678372263908386,-3.4954473972320557,0.2793944776058197
1712835436233764600,17.0927646484375,-0.2958115041255951,-3.58585524559021,0.012446379289031029
1712835436253764600,17.1127646484375,-0.43997567892074585,-3.460628032684326,-0.0694095641374588
1712835436273764600,17.1327646484375,-0.5474879741668701,-3.055013418197632,0.027718011289834976
1712835436293764600,17.1527646484375,-0.5823072791099548,-2.7630198001861572,0.06314819306135178
1712835436313764400,17.172764404296874,-0.6696610450744629,-2.03303599357605,0.15722143650054932
1712835436333764400,17.192764404296874,-0.9500481486320496,-0.568181037902832,0.2488512247800827
1712835436353764400,17.212764404296873,-2.420400857925415,1.8545105457305908,-0.18364135921001434
1712835436373764400,17.232764404296876,-2.9268081188201904,3.6290740966796875,-0.5055673718452454
1712835436393764400,17.252764404296876,-1.5322027206420898,-1.186376690864563,-0.7749589085578918
1712835436413764400,17.272764404296876,-0.16508632898330688,1.6394859552383423,-0.39988765120506287
1712835436433764400,17.292764404296875,0.04688390716910362,0.714635968208313,-1.4640148878097534
1712835436453764400,17.312764404296875,1.6357444524765015,3.046919584274292,-1.6588809490203857
1712835436473764400,17.332764404296874,1.6815593242645264,6.2447991371154785,-1.7126370668411255
1712835436493764400,17.352764404296874,0.6204863786697388,7.346189022064209,-2.0742692947387695
1712835436513764400,17.372764404296873,0.32849279046058655,4.830035209655762,-2.0437259674072266
1712835436533764400,17.392764404296877,0.7096726894378662,1.4470634460449219,-1.7321847677230835
1712835436553764400,17.412764404296876,0.7548767328262329,-1.1032990217208862,-1.6949219703674316
1712835436573764400,17.432764404296876,1.0896308422088623,-2.3567943572998047,-1.6991980075836182
1712835436593764400,17.452764404296875,1.1207849979400635,-1.0141127109527588,-2.0327305793762207
1712835436613764400,17.472764404296875,0.9967793822288513,0.5570327639579773,-1.535486102104187
1712835436633764400,17.492764404296874,0.6840163469314575,2.232025146484375,-0.5281693339347839
1712835436653764400,17.512764404296874,0.3254384696483612,2.402456760406494,0.0973566472530365
1712835436673764400,17.532764404296874,0.31383201479911804,1.4250723123550415,0.19448421895503998
1712835436693764400,17.552764404296877,0.5703954100608826,0.23510676622390747,0.38263070583343506
1712835436713764600,17.5727646484375,0.5911648273468018,-0.29329168796539307,0.9409615397453308
1712835436733764600,17.5927646484375,0.4830417037010193,-0.3366630971431732,1.6257414817810059
1712835436753764600,17.6127646484375,0.456163614988327,-0.18394680321216583,2.2445480823516846
1712835436773764600,17.6327646484375,0.508087158203125,-0.5669593214988708,2.522491693496704
1712835436793764600,17.6527646484375,0.38469240069389343,-1.1051316261291504,2.586021661758423
1712835436813764400,17.672764404296874,-0.20601430535316467,-2.734309196472168,2.972088575363159
1712835436833764400,17.692764404296874,-1.0685560703277588,-3.982306957244873,3.197497844696045
1712835436853764400,17.712764404296873,-1.878563404083252,-5.836893558502197,2.664212465286255
1712835436873764400,17.732764404296876,-2.483930826187134,-7.645054817199707,2.103438138961792
1712835436893764400,17.752764404296876,-2.1222984790802,-8.403749465942383,1.8945221900939941
1712835436913764400,17.772764404296876,-1.1388055086135864,-8.197277069091797,1.5829808712005615
1712835436933764400,17.792764404296875,-0.32940909266471863,-5.582773685455322,1.3838388919830322
1712835436953764400,17.812764404296875,0.17027868330478668,-1.9401843547821045,1.2598332166671753
1712835436973764400,17.832764404296874,0.5404630303382874,1.0377837419509888,0.8829293251037598
1712835436993764400,17.852764404296874,0.9057604670524597,2.7671432495117188,0.08758280426263809
1712835437013764400,17.872764404296873,0.9705121517181396,3.3578498363494873,-0.25450173020362854
1712835437033764400,17.892764404296877,0.9692904353141785,2.921692132949829,-0.2654972970485687
1712835437053764400,17.912764404296876,1.0248792171478271,1.601001501083374,-0.3815616965293884
1712835437073764400,17.932764404296876,1.0138835906982422,0.18623754382133484,-0.63507080078125
1712835437093764400,17.952764404296875,0.9057604670524597,-0.6958518624305725,-0.777402400970459
1712835437113764400,17.972764404296875,0.870330274105072,-0.8785005807876587,-0.9203448295593262
1712835437133764400,17.992764404296874,0.8807149529457092,-0.8149706125259399,-0.9704357981681824
1712835437153764400,18.012764404296874,0.8202393054962158,-0.6976844668388367,-0.9362273216247559
1712835437173764400,18.032764404296874,0.6760751008987427,-0.6964627504348755,-0.815886914730072
1712835437193764400,18.052764404296877,0.4970915913581848,-0.6854671835899353,-0.7419722080230713
1712835437213764600,18.0727646484375,0.37491855025291443,-0.5522985458374023,-0.6839399933815002
1712835437233764600,18.0927646484375,0.2741257846355438,-0.1650099754333496,-0.5568800568580627
1712835437253764600,18.1127646484375,0.14645494520664215,0.21555908024311066,-0.3876703679561615
1712835437273764600,18.1327646484375,0.10797043144702911,0.38232529163360596,-0.21357376873493195
1712835437293764600,18.1527646484375,0.09208793938159943,0.2858085632324219,-0.2013564556837082
1712835437313764400,18.172764404296874,0.0633772686123848,-0.09598220139741898,-0.1506546437740326
1712835437333764400,18.192764404296874,0.01878410577774048,-0.26946792006492615,0.05826127156615257
1712835437353764400,18.212764404296873,0.07437284290790558,-0.2877938747406006,0.2549598813056946
1712835437373764400,18.232764404296876,0.11163562536239624,-0.32383492588996887,0.38812851905822754
1712835437393764400,18.252764404296876,0.1287398487329483,-0.3470478057861328,0.45471280813217163
1712835437413764400,18.272764404296876,0.11652254313230515,-0.4331798255443573,0.5237405896186829
1712835437433764400,18.292764404296875,0.17333301901817322,-0.681191086769104,0.5090798139572144
1712835437453764400,18.312764404296875,0.1537853181362152,-1.101466417312622,0.5212971568107605
1712835437473764400,18.332764404296874,0.22708915174007416,-1.5138003826141357,0.761978030204773
1712835437493764400,18.352764404296874,0.3901901841163635,-1.9029215574264526,1.0252609252929688
1712835437513764400,18.372764404296873,0.4922046661376953,-2.0177643299102783,1.1486557722091675
1712835437533764400,18.392764404296877,0.4714352488517761,-1.1350640058517456,1.0814605951309204
1712835437553764400,18.412764404296876,0.4873177409172058,-0.084375761449337,0.7961865067481995
1712835437573764400,18.432764404296876,0.4103487432003021,1.0817660093307495,0.496862530708313
1712835437593764400,18.452764404296875,0.4964807331562042,1.5948927402496338,0.32154420018196106
1712835437613764400,18.472764404296875,0.6491970419883728,1.2998448610305786,0.18409951031208038
1712835437633764400,18.492764404296874,0.7567093372344971,0.8868999481201172,-0.01748601719737053
1712835437653764400,18.512764404296874,0.7365507483482361,0.8533023595809937,-0.04619668424129486
1712835437673764400,18.532764404296874,0.6320928335189819,1.238147497177124,-0.010766499675810337
1712835437693764400,18.552764404296877,0.5196936130523682,1.6614770889282227,-0.15309810638427734
1712835437713764600,18.5727646484375,0.32849279046058655,2.134286880493164,-0.47624582052230835
1712835437733764600,18.5927646484375,0.18005253374576569,2.26806640625,-0.6839399933815002
1712835437753764600,18.6127646484375,-0.16752979159355164,1.9443076848983765,-0.9710466861724854
1712835437773764600,18.6327646484375,-0.45036038756370544,1.5075390338897705,-0.9594402313232422
1712835437793764600,18.6527646484375,-0.7527387142181396,0.7671703696250916,-0.785954475402832
1712835437813764400,18.672764404296874,-1.0771081447601318,-0.3830888569355011,-0.3369685411453247
1712835437833764400,18.692764404296874,-1.441794753074646,-1.6530777215957642,0.18654297292232513
1712835437853764400,18.712764404296873,-1.7655532360076904,-2.631683826446533,0.5139667391777039
1712835437873764400,18.732764404296876,-2.1430680751800537,-3.1710777282714844,0.6446918845176697
1712835437893764400,18.752764404296876,-2.551736831665039,-3.3506722450256348,1.0460304021835327
1712835437913764400,18.772764404296876,-2.5199718475341797,-3.660991668701172,1.3752866983413696
1712835437933764400,18.792764404296875,-1.8571830987930298,-3.379382848739624,1.531057357788086
1712835437953764400,18.812764404296875,-1.3226759433746338,-2.0886247158050537,0.6562983393669128
1712835437973764400,18.832764404296874,-1.7820466756820679,-0.7532731890678406,0.21464277803897858
1712835437993764400,18.852764404296874,-2.1088595390319824,0.24488060176372528,0.35697436332702637
1712835438013764400,18.872764404296873,-1.848020076751709,0.02496911771595478,0.7210500836372375
1712835438033764400,18.892764404296877,-1.2652546167373657,-0.852233350276947,0.8658251166343689
1712835438053764400,18.912764404296876,-1.4234687089920044,-2.3286945819854736,0.8664360046386719
1712835438073764400,18.932764404296876,-1.704466700553894,-3.2291100025177,0.8939249515533447
1712835438093764400,18.952764404296875,-1.2023354768753052,-4.532085418701172,0.6746243238449097
1712835438113764400,18.972764404296875,-0.9909761548042297,-3.833866596221924,1.6324609518051147
1712835438133764400,18.992764404296874,-0.7582364678382874,-2.2535581588745117,1.1590404510498047
1712835438153764400,19.012764404296874,-0.6146831512451172,0.6694319248199463,0.28183794021606445
1712835438173764400,19.032764404296874,-0.6989825367927551,2.2870030403137207,-0.10667234659194946
1712835438193764400,19.052764404296877,-0.24938572943210602,2.2424099445343018,-0.4841870665550232
1712835438213764600,19.0727646484375,0.7102835774421692,0.9547060132026672,-0.615523099899292
1712835438233764600,19.0927646484375,1.1146763563156128,-0.24258986115455627,-0.3216969072818756
1712835438253764600,19.1127646484375,1.4482088088989258,-0.17234036326408386,-0.2813797891139984
1712835438273764600,19.1327646484375,1.9564486742019653,0.8044331669807434,-0.5544365644454956
1712835438293764600,19.1527646484375,2.2514965534210205,2.3169355392456055,-0.9435577392578125
1712835438313764400,19.172764404296874,2.2124011516571045,3.7072649002075195,-1.0834459066390991
1712835438333764400,19.192764404296874,2.096336841583252,4.505054950714111,-1.0785589218139648
1712835438353764400,19.212764404296873,2.0034852027893066,4.671210289001465,-1.090165376663208
1712835438373764400,19.232764404296876,1.8251125812530518,4.577747821807861,-1.145754098892212
1712835438393764400,19.252764404296876,1.5276212692260742,4.209395885467529,-1.2294427156448364
1712835438413764400,19.272764404296876,1.1128437519073486,3.670001983642578,-1.3809372186660767
1712835438433764400,19.292764404296875,0.6253733038902283,2.881985902786255,-1.3363441228866577
1712835438453764400,19.312764404296875,0.2050980031490326,1.6199382543563843,-1.1628583669662476
1712835438473764400,19.332764404296874,0.019394971430301666,0.359112411737442,-1.0125855207443237
1712835438493764400,19.352764404296874,-0.12110403180122375,-0.6500369906425476,-0.919734001159668
1712835438513764400,19.372764404296873,-0.342237263917923,-1.0073931217193604,-0.7560220956802368
1712835438533764400,19.392764404296877,-0.45463645458221436,-1.0941359996795654,-0.34490978717803955
1712835438553764400,19.412764404296876,-0.7038694620132446,-0.9896780848503113,0.00939205288887024
1712835438573764400,19.432764404296876,-1.0056369304656982,-0.8607854843139648,0.2800053656101227
1712835438593764400,19.452764404296875,-1.2793045043945312,-1.0287734270095825,0.6269767880439758
1712835438613764400,19.472764404296875,-1.3220651149749756,-1.2841150760650635,0.6532440185546875
1712835438633764400,19.492764404296874,-1.1772900819778442,-1.1002446413040161,0.5683337450027466
1712835438653764400,19.512764404296874,-0.3703370690345764,-0.6799693703651428,0.18715384602546692
1712835438673764400,19.532764404296874,0.24785856902599335,0.5704717636108398,0.1175151988863945
1712835438693764400,19.552764404296877,0.9057604670524597,3.30959153175354,-0.060246583074331284
1712835438713764600,19.5727646484375,1.4506522417068481,4.72985315322876,-0.46708282828330994
1712835438733764600,19.5927646484375,1.668120265007019,5.314451217651367,-0.577038586139679
1712835438753764600,19.6127646484375,1.6540703773498535,4.555145740509033,-0.38461601734161377
1712835438773764600,19.6327646484375,1.8904752731323242,3.2179617881774902,-0.776791512966156
1712835438793764600,19.6527646484375,1.8629863262176514,3.0267608165740967,-1.0486265420913696
1712835438813764400,19.672764404296874,1.1336132287979126,3.817831516265869,-1.52815580368042
1712835438833764400,19.692764404296874,0.42439863085746765,4.2796454429626465,-0.8623126745223999
1712835438853764400,19.712764404296873,0.3706424832344055,3.435429811477661,-0.4878522455692291
1712835438873764400,19.732764404296876,0.40851613879203796,1.9754618406295776,-0.5147303342819214
1712835438893764400,19.752764404296876,0.10552696883678436,0.9223301410675049,-0.7920631766319275
1712835438913764400,19.772764404296876,-0.21700987219810486,0.2033417671918869,-0.7059311270713806
1712835438933764400,19.792764404296875,-0.45891252160072327,0.11537717282772064,-0.053527068346738815
1712835438953764400,19.812764404296875,-0.5041165351867676,0.38843393325805664,0.41195225715637207
1712835438973764400,19.832764404296874,-0.46990808844566345,0.4672355651855469,0.6721808314323425
1712835438993764400,19.852764404296874,-0.3599523603916168,0.02802344225347042,0.9183595180511475
1712835439013764400,19.872764404296873,-0.2817615866661072,-0.4789946973323822,1.2958742380142212
1712835439033764400,19.892764404296877,-0.2200642079114914,-1.1295661926269531,1.6446783542633057
1712835439053764400,19.912764404296876,-0.13637566566467285,-1.849165439605713,1.7473037242889404
1712835439073764600,19.9327646484375,-0.2616030275821686,-2.7868435382843018,1.7705165147781372
1712835439093764600,19.9527646484375,-0.6623306274414062,-3.8051559925079346,1.8316030502319336
1712835439113764000,19.97276416015625,-1.3807082176208496,-4.652426242828369,1.8248835802078247
1712835439133764000,19.99276416015625,-2.090533494949341,-5.745264053344727,1.6281849145889282
1712835439153764000,20.01276416015625,-2.1229095458984375,-7.18934965133667,1.4229341745376587
1712835439173763800,20.032763916015625,-0.7234171628952026,-7.667656898498535,0.9770026206970215
1712835439193763800,20.052763916015625,-0.12293662875890732,-5.194263458251953,0.8982009887695312
1712835439213764000,20.07276416015625,-0.04902193695306778,-2.4569764137268066,1.068021535873413
1712835439233764000,20.09276416015625,0.009621127508580685,-0.3134502172470093,0.4003458023071289
1712835439253764000,20.11276416015625,0.3095559775829315,1.1715631484985352,-0.31864258646965027
1712835439273764000,20.13276416015625,0.5868887901306152,2.2967770099639893,-0.5147303342819214
1712835439293764000,20.15276416015625,0.7970264554023743,2.5631141662597656,-0.4090506434440613
1712835439313763800,20.172763916015626,0.8935431241989136,1.6364315748214722,-0.4640285074710846
1712835439333763800,20.192763916015625,0.8306240439414978,0.1526399552822113,-0.9062949419021606
1712835439353763800,20.212763916015625,0.7713701128959656,-1.0141127109527588,-1.129260778427124
1712835439373763800,20.232763916015625,0.7432702779769897,-1.5816065073013306,-1.0046442747116089
1712835439393763800,20.252763916015624,0.7341073155403137,-1.7062230110168457,-0.8097782135009766
1712835439413763300,20.272763427734375,0.6852380633354187,-1.6579645872116089,-0.6466771960258484
1712835439433763600,20.292763671875,0.5105306506156921,-1.431944489479065,-0.6020840406417847
1712835439453763600,20.312763671875,0.32788193225860596,-0.9059895277023315,-0.5336671471595764
1712835439473763600,20.332763671875,0.164170041680336,-0.12041681259870529,-0.39011383056640625
1712835439493763600,20.352763671875,0.010231993161141872,0.45379650592803955,-0.17631098628044128
1712835439513763000,20.37276318359375,-0.08689557760953903,0.572915256023407,0.02099849283695221
1712835439533763600,20.392763671875,-0.10949759185314178,0.26198482513427734,0.12179125845432281
1712835439553763600,20.412763671875,-0.13087788224220276,-0.19494237005710602,0.19448421895503998
1712835439573763600,20.432763671875,-0.2347249686717987,-0.510148823261261,0.29772046208381653
1712835439593763800,20.452763916015623,-0.4008803069591522,-0.548633337020874,0.4113413989543915
1712835439613763800,20.472763916015627,-0.5407684445381165,-0.31528282165527344,0.5133558511734009
1712835439633763800,20.492763916015626,-0.6366742849349976,0.21128301322460175,0.5127450227737427
1712835439653764000,20.51276416015625,-0.7417431473731995,0.6236170530319214,0.4876995384693146
1712835439673763800,20.532763916015625,-0.8407033085823059,0.762894332408905,0.45410194993019104
1712835439693763800,20.552763916015625,-0.8205447196960449,0.8612436652183533,0.3942371606826782
1712835439713764900,20.572764892578125,-0.6397286057472229,1.2137129306793213,0.3899610936641693
1712835439733764900,20.592764892578124,-0.5157229900360107,1.6492598056793213,0.3099377453327179
1712835439753764900,20.612764892578124,-0.4680754840373993,1.2014955282211304,-0.23495404422283173
1712835439773764900,20.632764892578123,-0.15347988903522491,1.3383294343948364,-0.7664068341255188
1712835439793764900,20.652764892578126,0.47448956966400146,2.2521839141845703,-1.1042152643203735
1712835439813764600,20.6727646484375,1.1104003190994263,3.042032480239868,-1.2428816556930542
1712835439833764400,20.692764404296874,1.1953105926513672,3.4891858100891113,-1.167134404182434
1712835439853764600,20.7127646484375,0.9876163601875305,3.585702657699585,-1.03274405002594
1712835439873764400,20.732764404296876,0.8843801617622375,3.2998178005218506,-1.178130030632019
1712835439893764600,20.7527646484375,0.7170031070709229,3.674888849258423,-1.3119094371795654
1712835439913764400,20.772764404296876,0.36453384160995483,3.970547676086426,-1.8122080564498901
1712835439933764600,20.7927646484375,-0.2719877362251282,4.068285942077637,-1.9777525663375854
1712835439953764600,20.8127646484375,-0.7710646390914917,3.585702657699585,-1.5385404825210571
1712835439973764600,20.8327646484375,-1.214552879333496,2.304107427597046,-0.5788711905479431
1712835439993764600,20.8527646484375,-1.3281737565994263,0.3511711657047272,0.10346530377864838
1712835440013765000,20.87276513671875,-1.0764973163604736,-1.434998869895935,0.11629346758127213
1712835440033764900,20.892764892578125,-1.072221279144287,-2.212630271911621,-0.263053834438324
1712835440053764900,20.912764892578124,-1.0630582571029663,-1.6689602136611938,-0.27893635630607605
1712835440073765000,20.93276513671875,-0.7160868048667908,-0.3232240676879883,0.353920042514801
1712835440093765000,20.95276513671875,-0.25793784856796265,0.685925304889679,1.0026589632034302
1712835440113765400,20.972765380859375,0.11285735666751862,0.10926852375268936,1.1846967935562134
1712835440133765000,20.99276513671875,0.4207334518432617,-0.5095379948616028,1.6141350269317627
1712835440153765000,21.01276513671875,0.5606215596199036,-1.006171464920044,2.218280792236328
1712835440173764900,21.032764892578125,0.36453384160995483,-2.240119218826294,2.435137987136841
1712835440193764600,21.0527646484375,-0.13148874044418335,-3.15641713142395,2.655660390853882
1712835440213764900,21.072764892578125,-0.7118107080459595,-5.064760208129883,2.4504096508026123
1712835440233764900,21.092764892578124,-0.5914703011512756,-6.969438076019287,1.2708288431167603
1712835440253764600,21.1127646484375,0.1696678251028061,-6.184475898742676,1.0362565517425537
1712835440273764600,21.1327646484375,0.7512115240097046,-3.5962400436401367,1.8609246015548706
1712835440293764600,21.1527646484375,1.183704137802124,-0.8467355966567993,2.176131010055542
1712835440313764400,21.172764404296874,1.0835222005844116,0.27664560079574585,0.9745591282844543
1712835440333764400,21.192764404296874,0.8544477820396423,1.2693016529083252,-0.0443640872836113
1712835440353764400,21.212764404296873,0.8110763430595398,2.4030675888061523,-0.3571271002292633
1712835440373764400,21.232764404296876,1.126282811164856,2.7158305644989014,-0.3717878460884094
1712835440393764400,21.252764404296876,1.1232284307479858,1.6040557622909546,-0.43470698595046997
1712835440413764400,21.272764404296876,0.9393580555915833,-0.08376489579677582,-0.7419722080230713
1712835440433764400,21.292764404296875,0.8678867816925049,-1.2297481298446655,-1.1078804731369019
1712835440453764400,21.312764404296875,0.8709411025047302,-1.5748869180679321,-1.260596752166748
1712835440473764400,21.332764404296874,0.9246972799301147,-1.3421473503112793,-1.1891255378723145
1712835440493764400,21.352764404296874,0.9442449808120728,-0.8149706125259399,-0.9429468512535095
1712835440513764400,21.372764404296873,0.8098546266555786,-0.34399348497390747,-0.6650031805038452
1712835440533764400,21.392764404296877,0.5410739183425903,-0.0898735523223877,-0.5141194462776184
1712835440553764400,21.412764404296876,0.24113905429840088,-0.1454622894525528,-0.3888920843601227
1712835440573764400,21.432764404296876,-0.03680463135242462,-0.31589367985725403,-0.24472789466381073
1712835440593764400,21.452764404296875,-0.16569720208644867,-0.2706896662712097,-0.08101600408554077
1712835440613764400,21.472764404296875,-0.24755313992500305,-0.17234036326408386,0.12973250448703766
1712835440633764400,21.492764404296874,-0.31352660059928894,-0.08071056753396988,0.31665727496147156
1712835440653764400,21.512764404296874,-0.4265366494655609,-0.051999904215335846,0.42844560742378235
1712835440673764400,21.532764404296874,-0.57436603307724,-0.11858421564102173,0.5121341347694397
1712835440693764400,21.552764404296877,-0.7484626173973083,-0.08804095536470413,0.534736156463623
1712835440713764600,21.5727646484375,-0.8804095387458801,-0.0019089538836851716,0.5200753808021545
1712835440733764600,21.5927646484375,-1.0349584817886353,0.21189388632774353,0.5432882905006409
1712835440753764600,21.6127646484375,-1.087492823600769,0.2283872365951538,0.5078580975532532
1712835440773764600,21.6327646484375,-0.9989174008369446,0.1422552466392517,0.3954588770866394
1712835440793764600,21.6527646484375,-0.8205447196960449,0.3994295001029968,0.3753003478050232
1712835440813764400,21.672764404296874,-0.7026477456092834,0.7280750274658203,0.2604576647281647
1712835440833764400,21.692764404296874,-0.7900014519691467,1.0322859287261963,-0.0009926559869199991
1712835440853764400,21.712764404296873,-0.49984049797058105,1.3786464929580688,-0.566653847694397
1712835440873764400,21.732764404296876,0.0731511116027832,2.3065507411956787,-0.9172905087471008
1712835440893764400,21.752764404296876,0.5502368807792664,3.0762410163879395,-1.2404382228851318
1712835440913764400,21.772764404296876,0.7005097270011902,3.2711069583892822,-1.3155746459960938
1712835440933764400,21.792764404296875,0.6229298114776611,2.8923704624176025,-1.4010957479476929
1712835440953764400,21.812764404296875,0.792750358581543,2.5008058547973633,-1.4408020973205566
1712835440973764400,21.832764404296874,0.8385652899742126,2.2271382808685303,-1.5128841400146484
1712835440993764400,21.852764404296874,0.717613935470581,1.866117000579834,-1.659491777420044
1712835441013764400,21.872764404296873,0.5697845816612244,2.3920719623565674,-1.69858717918396
1712835441033764400,21.892764404296877,0.20754146575927734,2.648024559020996,-2.0412826538085938
1712835441053764400,21.912764404296876,-0.25793784856796265,2.7610344886779785,-1.7584519386291504
1712835441073764400,21.932764404296876,-0.45952337980270386,2.128788948059082,-0.8366563320159912
1712835441093764400,21.952764404296875,-0.34162637591362,0.723798930644989,-0.19219347834587097
1712835441113764400,21.972764404296875,-0.02275473065674305,-0.9701303839683533,-0.44142648577690125
1712835441133764400,21.992764404296874,0.17577648162841797,-1.9462929964065552,-0.3485749661922455
1712835441153764400,22.012764404296874,0.1696678251028061,-1.3690253496170044,0.18715384602546692
1712835441173764400,22.032764404296874,0.24358251690864563,-0.0342848114669323,0.9360746145248413
1712835441193764400,22.052764404296877,0.4787656366825104,1.048168420791626,1.4889076948165894
1712835441213764600,22.0727646484375,0.6901249885559082,1.5093716382980347,1.8395442962646484
1712835441233764600,22.0927646484375,0.8171849846839905,1.316338300704956,2.396042585372925
1712835441253764600,22.1127646484375,0.8611672520637512,0.5997933149337769,2.9305496215820312
1712835441273764600,22.1327646484375,0.6345362663269043,-1.0409907102584839,3.1376330852508545
1712835441293764600,22.1527646484375,0.07498370856046677,-3.1069369316101074,3.0588314533233643
1712835441313764400,22.172764404296874,-0.622624397277832,-4.885776519775391,2.538374185562134
1712835441333764400,22.192764404296874,-1.4515684843063354,-6.352464199066162,1.7161495685577393
1712835441353764400,22.212764404296873,-1.8443548679351807,-6.63712739944458,1.6318501234054565
1712835441373764400,22.232764404296876,-0.6433938145637512,-6.673779010772705,1.3838388919830322
1712835441393764400,22.252764404296876,0.11102475970983505,-5.62125825881958,0.8713229298591614
1712835441413764400,22.272764404296876,0.1690569519996643,-2.3983333110809326,0.99166339635849
1712835441433764400,22.292764404296875,0.3712533414363861,-0.07399105280637741,0.9049205183982849
1712835441453764400,22.312764404296875,0.47937649488449097,0.7195228934288025,0.09491318464279175
1712835441473764400,22.332764404296874,0.5337435007095337,1.164232850074768,-0.3876703679561615
1712835441493764400,22.352764404296874,0.7035640478134155,1.4201853275299072,-0.44631341099739075
1712835441513764400,22.372764404296873,0.8000807762145996,0.801989734172821,-0.7712937593460083
1712835441533764400,22.392764404296877,0.7102835774421692,-0.14179709553718567,-1.1274281740188599
1712835441553764400,22.412764404296876,0.6675229668617249,-0.7825947403907776,-1.2502120733261108
1712835441573764400,22.432764404296876,0.7481572031974792,-0.9597456455230713,-1.2459360361099243
1712835441593764400,22.452764404296875,0.7970264554023743,-0.9084329605102539,-1.1323150396347046
1712835441613764400,22.472764404296875,0.7200574278831482,-0.7880925536155701,-0.956996738910675
1712835441633764400,22.492764404296874,0.5746715068817139,-0.5749005675315857,-0.8617017865180969
1712835441653764400,22.512764404296874,0.4109596014022827,-0.3562107980251312,-0.795728325843811
1712835441673764400,22.532764404296874,0.22586742043495178,-0.0593302883207798,-0.6778313517570496
1712835441693764400,22.552764404296877,0.08292495459318161,0.26748260855674744,-0.49762609601020813
1712835441713764600,22.5727646484375,-0.05268712714314461,0.5124396085739136,-0.3174208402633667
1712835441733764600,22.5927646484375,-0.11621711403131485,0.5246568918228149,-0.11278099566698074
1712835441753764600,22.6127646484375,-0.1644754707813263,0.32246050238609314,0.04115704447031021
1712835441773764600,22.6327646484375,-0.2402227520942688,0.09582948684692383,0.12606731057167053
1712835441793764600,22.6527646484375,-0.37888917326927185,-0.055054228752851486,0.1834886521100998
1712835441813764400,22.672764404296874,-0.5352706909179688,-0.08681922405958176,0.23235787451267242
1712835441833764400,22.692764404296874,-0.7026477456092834,0.05245805159211159,0.27756190299987793
1712835441853764400,22.712764404296873,-0.887739896774292,0.14347697794437408,0.19631682336330414
1712835441873764400,22.732764404296876,-0.9482156038284302,0.34322991967201233,0.18715384602546692
1712835441893764400,22.752764404296876,-0.7985535860061646,0.734794557094574,0.31299206614494324
1712835441913764400,22.772764404296876,-0.5230533480644226,1.3572661876678467,0.3856850564479828
1712835441933764400,22.792764404296875,-0.27809640765190125,1.5344171524047852,-0.07612907886505127
1712835441953764400,22.812764404296875,0.22403483092784882,2.0133354663848877,-0.6717227101325989
1712835441973764400,22.832764404296874,0.8349000811576843,3.1568751335144043,-0.7829001545906067
1712835441993764400,22.852764404296874,1.2069170475006104,3.907017707824707,-0.8470410108566284
1712835442013764400,22.872764404296873,1.2460123300552368,3.543552875518799,-0.8128325939178467
1712835442033764400,22.892764404296877,1.1782063245773315,3.0518064498901367,-0.7548003792762756
1712835442053764400,22.912764404296876,1.2612839937210083,2.5099689960479736,-1.1408672332763672
1712835442073764400,22.932764404296876,1.3309226036071777,2.996217727661133,-1.1048262119293213
1712835442093764400,22.952764404296875,0.8165740966796875,3.4415383338928223,-2.087097406387329
1712835442113764400,22.972764404296875,0.10491610318422318,3.9552760124206543,-1.823203682899475
1712835442133764400,22.992764404296874,0.08109235763549805,2.9638419151306152,-0.7932848930358887
1712835442153764400,23.012764404296874,0.15256360173225403,0.7958810329437256,-0.4420373737812042
1712835442173764400,23.032764404296874,0.0377209298312664,-0.8650615215301514,-0.8018369674682617
1712835442193764400,23.052764404296877,0.2154827117919922,-1.1045206785202026,-0.7364743947982788
1712835442213764600,23.0727646484375,0.3113885521888733,-0.35498905181884766,-0.05841398984193802
1712835442233764600,23.0927646484375,0.2142609804868698,0.9571495056152344,0.7778605222702026
1712835442253764600,23.1127646484375,0.2942843437194824,1.5093716382980347,1.333137035369873
1712835442273764600,23.1327646484375,0.4311181604862213,1.254640817642212,1.6037503480911255
1712835442293764600,23.1527646484375,0.5435173511505127,0.329790860414505,1.8792505264282227
1712835442313764400,23.172764404296874,0.4928155243396759,-0.9847911596298218,2.0790035724639893
1712835442333764400,23.192764404296874,0.22342395782470703,-2.194915294647217,2.2005655765533447
1712835442353764400,23.212764404296873,-0.2756529450416565,-3.2804226875305176,2.1749093532562256
1712835442373764400,23.232764404296876,-1.088714599609375,-4.166788101196289,2.170633316040039
1712835442393764400,23.252764404296876,-2.0593793392181396,-5.399514198303223,1.7375298738479614
1712835442413764400,23.272764404296876,-2.905427932739258,-6.651788234710693,1.0753519535064697
1712835442433764400,23.292764404296875,-2.5077545642852783,-7.335957050323486,0.658130943775177
1712835442453764400,23.312764404296875,-0.471129834651947,-6.737919807434082,1.085736632347107
1712835442473764400,23.332764404296874,0.2594650089740753,-4.312174320220947,0.7931321859359741
1712835442493764400,23.352764404296874,0.3364340364933014,-2.095344066619873,0.3942371606826782
1712835442513764400,23.372764404296873,0.4115704596042633,-0.12591460347175598,-0.20929770171642303
1712835442533764400,23.392764404296877,0.5893322229385376,1.2784645557403564,-0.8525388240814209
1712835442553764400,23.412764404296876,0.7744244337081909,2.4397194385528564,-0.9899834990501404
1712835442573764400,23.432764404296876,0.99250328540802,2.4782040119171143,-0.8091673851013184
1712835442593764400,23.452764404296875,1.002277135848999,1.3688726425170898,-0.9930378198623657
1712835442613764400,23.472764404296875,0.9393580555915833,-0.1460731476545334,-1.385824203491211
1712835442633764400,23.492764404296874,0.8923214077949524,-1.0477102994918823,-1.376050353050232
1712835442653764400,23.512764404296874,0.7780895829200745,-1.3604732751846313,-1.0657308101654053
1712835442673764400,23.532764404296874,0.6876815557479858,-1.5125787258148193,-0.8488736152648926
1712835442693764400,23.552764404296877,0.6473644375801086,-1.5376241207122803,-0.748691737651825
1712835442713764600,23.5727646484375,0.49525898694992065,-1.4081207513809204,-0.595364511013031
1712835442733764600,23.5927646484375,0.21792617440223694,-0.8613963723182678,-0.38461601734161377
1712835442753764600,23.6127646484375,-0.027641652151942253,-0.1454622894525528,-0.2215150147676468
1712835442773764600,23.6327646484375,-0.19135354459285736,0.339564710855484,-0.12316570430994034
1712835442793764600,23.6527646484375,-0.29825496673583984,0.4171445965766907,-0.04253149405121803
1712835442813764400,23.672764404296874,-0.4369213581085205,0.4055381715297699,0.09308059513568878
1712835442833764400,23.692764404296874,-0.6000223755836487,0.3358995318412781,0.27695104479789734
1712835442853764400,23.712764404296873,-0.735634446144104,0.29130637645721436,0.30566170811653137
1712835442873764400,23.732764404296876,-0.6934847831726074,0.3866013288497925,0.18959729373455048
1712835442893764400,23.752764404296876,-0.5914703011512756,0.7916049957275391,0.1688278764486313
1712835442913764400,23.772764404296876,-0.16142113506793976,0.5552001595497131,0.18654297292232513
1712835442933764400,23.792764404296875,0.2906191349029541,0.0817795842885971,0.13400855660438538
1712835442953764400,23.812764404296875,0.6650795340538025,0.11598803848028183,-0.03214678168296814
1712835442973764400,23.832764404296874,1.0273226499557495,0.21494820713996887,-0.1097266674041748
1712835442993764400,23.852764404296874,1.0523680448532104,0.2491566687822342,-0.17447838187217712
1712835443013764400,23.872764404296873,0.9228646755218506,0.1630246639251709,-0.25022566318511963
1712835443033764400,23.892764404296877,0.8825475573539734,0.18196149170398712,-0.30337095260620117
1712835443053764400,23.912764404296876,0.7811439037322998,0.4562399685382843,-0.3064252734184265
1712835443073764400,23.932764404296876,0.5636758804321289,0.6120105981826782,-0.2709950804710388
1712835443093764400,23.952764404296875,0.37858372926712036,0.4855615198612213,-0.21235203742980957
1712835443113764400,23.972764404296875,0.2399173229932785,0.07444920390844345,-0.130496084690094
1712835443133764400,23.992764404296874,0.15195272862911224,-0.4337906837463379,-0.07857254147529602
1712835443153764400,24.012764404296874,0.05421429127454758,-0.9774607419967651,-0.15676330029964447
1712835443173764400,24.032764404296874,0.007177666760981083,-1.4472161531448364,-0.3473532497882843
1712835443193764400,24.052764404296877,0.14828753471374512,-1.577330470085144,-0.41027235984802246
1712835443213764600,24.0727646484375,0.3449861407279968,-1.28839111328125,-0.4377613067626953
1712835443233764600,24.0927646484375,0.5264131426811218,-0.5718462467193604,-0.4334852397441864
1712835443253764600,24.1127646484375,0.546571671962738,0.2039526402950287,-0.3669009506702423
1712835443273764600,24.1327646484375,0.4524984359741211,0.47456592321395874,-0.32536208629608154
1712835443293764600,24.1527646484375,0.3724750876426697,0.4623486399650574,-0.30398181080818176
1712835443313764400,24.172764404296874,0.2747366428375244,0.27786731719970703,-0.26916250586509705
1712835443333764400,24.192764404296874,0.1189660057425499,-0.05016730725765228,-0.24961480498313904
1712835443353764400,24.212764404296873,-0.005650503560900688,-0.27374398708343506,-0.2722168266773224
1712835443373764400,24.232764404296876,-0.09544769674539566,-0.39469531178474426,-0.2569451928138733
1712835443393764400,24.252764404296876,-0.2646573781967163,-0.520533561706543,-0.18975001573562622
1712835443413764400,24.272764404296876,-0.3196352422237396,-0.6219371557235718,-0.1152244582772255
1712835443433764400,24.292764404296875,-0.24633140861988068,-0.6115524768829346,-0.027870727702975273
1712835443453764400,24.312764404296875,-0.15286903083324432,-0.7251734137535095,-0.08590292185544968
1712835443473764400,24.332764404296874,-0.09422596544027328,-0.7697665691375732,-0.2160172164440155
1712835443493764400,24.352764404296874,-0.05696318298578262,-0.6689738035202026,-0.40538543462753296
1712835443513764400,24.372764404296873,0.08964447677135468,-0.35559993982315063,-0.5605452060699463
1712835443533764400,24.392764404296877,0.25274550914764404,0.07017314434051514,-0.5379431843757629
1712835443553764400,24.412764404296876,0.27840182185173035,0.2882520258426666,-0.4279874563217163
1712835443573764400,24.432764404296876,0.1898263692855835,0.16668985784053802,-0.2966514229774475
1712835443593764400,24.452764404296875,0.06520986557006836,0.007254024967551231,-0.263053834438324
1712835443613764400,24.472764404296875,-0.06001751124858856,-0.15767958760261536,-0.2813797891139984
1712835443633764400,24.492764404296874,-0.16508632898330688,-0.24747678637504578,-0.31009048223495483
1712835443653764400,24.512764404296874,-0.15225815773010254,-0.27313312888145447,-0.330859899520874
1712835443673764400,24.532764404296874,-0.059406645596027374,-0.306730717420578,-0.30886873602867126
1712835443693764400,24.552764404296877,-0.00809396430850029,-0.3281109929084778,-0.25938865542411804
1712835443713764600,24.5727646484375,-0.006261368747800589,-0.358654260635376,-0.230677992105484
1712835443733764600,24.5927646484375,-0.05268712714314461,-0.43562328815460205,-0.15126550197601318
1712835443753764600,24.6127646484375,-0.1394299864768982,-0.49121201038360596,-0.08773551881313324
1712835443773764600,24.6327646484375,-0.18096883594989777,-0.5193118453025818,-0.15920674800872803
1712835443793764600,24.6527646484375,-0.07712173461914062,-0.6518695950508118,-0.4023311138153076
1712835443813764400,24.672764404296874,0.06704246252775192,-0.6952410340309143,-0.5849798321723938
1712835443833764400,24.692764404296874,0.14767667651176453,-0.530307412147522,-0.6100252866744995
1712835443853764400,24.712764404296873,0.19349156320095062,-0.2761874496936798,-0.5495496392250061
1712835443873764400,24.732764404296876,0.1488984078168869,-0.03000875562429428,-0.44020476937294006
1712835443893764400,24.752764404296876,0.04932736977934837,0.11659890413284302,-0.39011383056640625
1712835443913764400,24.772764404296876,-0.04841107130050659,0.2082286924123764,-0.3516293168067932
1712835443933764400,24.792764404296875,-0.09666942805051804,0.15508341789245605,-0.3870594799518585
1712835443953764400,24.812764404296875,-0.09789115190505981,-0.010461067780852318,-0.4243222773075104
1712835443973764400,24.832764404296874,-0.08689557760953903,-0.1851685345172882,-0.40049853920936584
1712835443993764400,24.852764404296874,-0.1033889427781105,-0.3336087763309479,-0.36079227924346924
1712835444013764400,24.872764404296873,-0.09483683109283447,-0.5571854710578918,-0.3271946907043457
1712835444033764400,24.892764404296877,-0.08567385375499725,-0.529696524143219,-0.2703842222690582
