time,seconds_elapsed,z,y,x
1712834726507914200,0.110914306640625,0.08326339721679688,-0.30172014236450195,0.35477757453918457
1712834726529914000,0.1329140625,0.08401679992675781,-0.6160240173339844,0.3980565071105957
1712834726549914000,0.1529140625,-0.16213750839233398,-0.5850257873535156,1.0736483335494995
1712834726569918700,0.172918701171875,-0.2802252769470215,0.9006495475769043,-0.9162046909332275
1712834726589918700,0.192918701171875,0.022497177124023438,0.29224634170532227,-0.9105944633483887
1712834726609918700,0.212918701171875,-0.2217559814453125,-0.11469602584838867,-0.2594280242919922
1712834726629918700,0.232918701171875,-0.3897113800048828,-0.5335783958435059,-0.18094277381896973
1712834726649918700,0.252918701171875,-0.688199520111084,-0.811769962310791,0.4078831672668457
1712834726669918700,0.272918701171875,-1.1308808326721191,-0.9733638763427734,1.6875766515731812
1712834726689918700,0.292918701171875,-0.5208830833435059,-0.5222711563110352,2.9401021003723145
1712834726709919700,0.312919677734375,-1.8591327667236328,1.393327236175537,6.413778305053711
1712834726729919700,0.332919677734375,-2.9369635581970215,1.975992202758789,6.49284553527832
1712834726749919700,0.352919677734375,-4.305570602416992,4.655981540679932,4.374711036682129
1712834726769919700,0.372919677734375,-6.302059650421143,3.001720905303955,0.5518136024475098
1712834726789919700,0.392919677734375,-4.766848564147949,2.148709774017334,0.24938488006591797
1712834726809919700,0.412919677734375,-2.681919574737549,1.2283077239990234,1.6940484046936035
1712834726829919700,0.432919677734375,-1.5948669910430908,0.5899977684020996,2.887390613555908
1712834726849919700,0.452919677734375,-0.6659455299377441,1.523590087890625,3.267122268676758
1712834726869919700,0.472919677734375,-0.9323937892913818,3.4688315391540527,1.8209257125854492
1712834726889919700,0.492919677734375,-1.588327407836914,3.4550771713256836,-0.18859100341796875
1712834726909919700,0.512919677734375,-2.2150626182556152,2.2935895919799805,-1.5745549201965332
1712834726929919700,0.532919677734375,-3.497164726257324,3.0721311569213867,-2.586033821105957
1712834726949919700,0.552919677734375,-3.1129558086395264,4.0217390060424805,-4.700854778289795
1712834726969919700,0.572919677734375,-2.371829032897949,2.1900014877319336,-3.851856231689453
1712834726989919700,0.592919677734375,-1.6041871309280396,1.2947473526000977,-1.5434041023254395
1712834727009919700,0.612919677734375,-1.519824743270874,3.206378936767578,-0.7915709018707275
1712834727029919700,0.632919677734375,-0.7311828136444092,3.0927867889404297,-1.4946415424346924
1712834727049919700,0.652919677734375,-0.4608609676361084,2.1079959869384766,-2.3531970977783203
1712834727069920000,0.672919921875,-1.1146785020828247,1.6458444595336914,-2.183384895324707
1712834727089920000,0.692919921875,-1.9910252094268799,1.9382352828979492,-1.5131117105484009
1712834727109920000,0.712919921875,-1.9257577657699585,1.6228370666503906,-2.262608528137207
1712834727129920000,0.732919921875,-0.8614981174468994,0.6681861877441406,-2.8077073097229004
1712834727149920000,0.752919921875,-0.5370340347290039,0.0023603439331054688,-1.6591355800628662
1712834727169919700,0.772919677734375,-0.5564677715301514,-0.006848335266113281,-1.9369581937789917
1712834727189919700,0.792919677734375,-0.9540834426879883,-0.6248588562011719,-1.7835687398910522
1712834727209920000,0.812919921875,-0.11272549629211426,-0.4228324890136719,-0.9100542664527893
1712834727229920000,0.832919921875,-0.18739080429077148,-0.39647579193115234,-0.8893507122993469
1712834727249920000,0.852919921875,-1.2263953685760498,-0.5019693374633789,-1.9860166311264038
1712834727269920000,0.872919921875,-1.397383451461792,-0.7858552932739258,-3.3413267135620117
1712834727289920000,0.892919921875,-1.4552292823791504,-0.7299404144287109,-2.9333720207214355
1712834727309919700,0.912919677734375,-1.3581571578979492,-0.7981176376342773,-2.796971082687378
1712834727329919700,0.932919677734375,-0.12815570831298828,-0.6731863021850586,-3.419060230255127
1712834727349919700,0.952919677734375,-0.09287357330322266,-0.5325660705566406,-2.821234941482544
1712834727369919700,0.972919677734375,-0.2375345230102539,-0.696530818939209,-3.6428821086883545
1712834727389919700,0.992919677734375,-0.7462880611419678,-0.46827125549316406,-4.966030120849609
1712834727409919700,1.012919677734375,-0.6241741180419922,-0.2302074432373047,-4.3896355628967285
1712834727429919700,1.032919677734375,-1.397200584411621,-0.07411956787109375,-3.5935535430908203
1712834727449919700,1.052919677734375,-2.0895345211029053,-0.9813385009765625,-3.2884154319763184
1712834727469919700,1.072919677734375,-3.0295746326446533,-1.4237489700317383,-2.401397705078125
1712834727489919700,1.092919677734375,-3.950335741043091,-0.9146180152893066,-1.8345880508422852
1712834727509919700,1.112919677734375,-4.017759799957275,-0.8086662292480469,-1.7432565689086914
1712834727529919700,1.132919677734375,-7.533761978149414,-0.7711138725280762,2.485860824584961
1712834727549919700,1.152919677734375,-6.807913780212402,-2.427299976348877,7.3817033767700195
1712834727569920000,1.172919921875,-6.742501258850098,-4.115496635437012,8.44190502166748
1712834727589920000,1.192919921875,-6.405033111572266,-3.585571765899658,7.968434810638428
1712834727609920000,1.212919921875,-6.245569229125977,-3.9347853660583496,7.455455303192139
1712834727629920000,1.232919921875,-7.916913986206055,1.2927484512329102,5.98441219329834
1712834727649920000,1.252919921875,-4.904141426086426,-2.7826242446899414,-1.293990135192871
1712834727669919700,1.272919677734375,-1.3580851554870605,-1.885706901550293,-2.7975339889526367
1712834727689919700,1.292919677734375,-0.9815244674682617,-1.992844581604004,-2.841831922531128
1712834727709920000,1.312919921875,2.240790843963623,2.2496910095214844,-0.06096792221069336
1712834727729920000,1.332919921875,6.407169818878174,8.333118438720703,4.8888092041015625
1712834727749920000,1.352919921875,6.376677989959717,10.261077880859375,5.744976997375488
1712834727769920000,1.372919921875,5.462997913360596,9.565208435058594,8.030006408691406
1712834727789920000,1.392919921875,3.8038439750671387,7.14948844909668,14.070453643798828
1712834727809919700,1.412919677734375,1.5532400608062744,8.31872844696045,14.755696296691895
1712834727829919700,1.432919677734375,1.0862829685211182,8.893501281738281,5.8283562660217285
1712834727849919700,1.452919677734375,-3.281531810760498,9.023811340332031,0.02699410915374756
1712834727869919700,1.472919677734375,-5.213130950927734,6.2587995529174805,-3.010875940322876
1712834727889919700,1.492919677734375,-4.313664436340332,4.465610504150391,-0.8766911625862122
1712834727909919700,1.512919677734375,-5.070717811584473,2.824246406555176,0.568009078502655
1712834727929919700,1.532919677734375,-5.374432563781738,2.888699531555176,0.2166123390197754
1712834727949919700,1.552919677734375,-3.834831714630127,2.186727523803711,0.9549091458320618
1712834727969919700,1.572919677734375,-3.7597556114196777,1.080953598022461,1.1462502479553223
1712834727989919700,1.592919677734375,-4.0433349609375,1.184544563293457,1.2926685810089111
1712834728009919700,1.612919677734375,-3.8967506885528564,0.24463558197021484,-4.945000648498535
1712834728029919700,1.632919677734375,-4.0959272384643555,0.35628509521484375,-4.546480655670166
1712834728049919700,1.652919677734375,-4.6993818283081055,-1.7680315971374512,-2.2666735649108887
1712834728069920000,1.672919921875,-1.5686933994293213,0.7558279037475586,-1.3457059860229492
1712834728089920000,1.692919921875,1.1319890022277832,-2.043698310852051,-4.478625297546387
1712834728109920000,1.712919921875,0.5876531600952148,-4.540223121643066,-6.385685920715332
1712834728129920000,1.732919921875,-1.739579677581787,-2.228911876678467,-6.836185932159424
1712834728149920000,1.752919921875,-2.269454002380371,-0.13721036911010742,-6.81044864654541
1712834728169682000,1.772681884765625,-2.2618937492370605,-1.1754560470581055,-5.858956336975098
1712834728189682000,1.792681884765625,-1.8588452339172363,-1.858926773071289,-3.403653621673584
1712834728209682200,1.81268212890625,-1.3236479759216309,-2.061457633972168,-1.7171931266784668
1712834728229682200,1.83268212890625,-2.4160256385803223,-2.5461812019348145,-0.9596285820007324
1712834728249682200,1.85268212890625,-3.0317745208740234,-2.322042942047119,-0.7483782768249512
1712834728269682200,1.87268212890625,-2.8811521530151367,-2.116497039794922,-0.435849666595459
1712834728289682200,1.89268212890625,-3.0290608406066895,-2.7637383937835693,0.044646263122558594
1712834728309682000,1.912681884765625,-3.4127814769744873,-4.027953147888184,-0.7771821022033691
1712834728329682000,1.932681884765625,-4.638745307922363,-3.904005289077759,-1.2197046279907227
1712834728349682000,1.952681884765625,-4.642518043518066,-3.93121600151062,-1.9857211112976074
1712834728369682000,1.972681884765625,-4.526064395904541,-3.931417226791382,-1.9204068183898926
1712834728389682000,1.992681884765625,-5.1498613357543945,-4.142210006713867,-1.2273674011230469
1712834728409682000,2.012681884765625,-5.923195838928223,-4.416281700134277,-0.7904162406921387
1712834728429682000,2.032681884765625,-5.699042797088623,-5.095882892608643,1.423449993133545
1712834728449682000,2.052681884765625,-5.129673957824707,-5.4585161209106445,0.98724365234375
1712834728469682000,2.072681884765625,-7.680665969848633,-5.234621047973633,1.0490517616271973
1712834728489682000,2.092681884765625,-9.112939834594727,-3.587184190750122,5.746364593505859
1712834728509682000,2.112681884765625,-9.211708068847656,-3.714488983154297,10.357755661010742
1712834728529682000,2.132681884765625,-9.326277732849121,-4.060452461242676,9.6329345703125
1712834728549682000,2.152681884765625,-6.726105690002441,-4.603411674499512,12.579728126525879
1712834728569682200,2.17268212890625,-8.019789695739746,1.050795555114746,11.713484764099121
1712834728589682200,2.19268212890625,-9.987691879272461,10.083576202392578,7.945539474487305
1712834728609682200,2.21268212890625,-5.338594436645508,0.8941154479980469,-1.0323748588562012
1712834728629682200,2.23268212890625,-2.436079502105713,1.493271827697754,0.08523678779602051
1712834728649682200,2.25268212890625,-2.2291347980499268,1.4065179824829102,-0.026975631713867188
1712834728669682000,2.272681884765625,-0.31693291664123535,5.302022933959961,0.6944880485534668
1712834728689682000,2.292681884765625,6.045627593994141,10.566734313964844,13.760405540466309
1712834728709682200,2.31268212890625,5.960075378417969,10.533617973327637,13.505626678466797
1712834728729682200,2.33268212890625,6.73406982421875,16.040061950683594,31.59583282470703
1712834728749682200,2.35268212890625,-0.041640520095825195,21.433021545410156,18.75661849975586
1712834728769682200,2.37268212890625,-0.20240402221679688,21.48183822631836,18.750316619873047
1712834728789682200,2.39268212890625,-4.881636619567871,21.763111114501953,2.902069330215454
1712834728809682000,2.412681884765625,1.0860278606414795,13.605218887329102,-12.88215446472168
1712834728829682000,2.432681884765625,0.8935959339141846,13.634885787963867,-13.243978500366211
1712834728849682000,2.452681884765625,4.060467720031738,5.840685844421387,-7.091279029846191
1712834728869682000,2.472681884765625,-1.2366869449615479,0.30883026123046875,-14.120207786560059
1712834728889682000,2.492681884765625,-7.384469985961914,-1.9203805923461914,-14.821166038513184
1712834728909682000,2.512681884765625,-14.77090835571289,0.6373004913330078,-9.297059059143066
1712834728929682000,2.532681884765625,-12.893566131591797,-5.188017845153809,-6.257967472076416
1712834728949682000,2.552681884765625,-6.938561916351318,-7.082026481628418,-1.4587410688400269
1712834728969682000,2.572681884765625,-5.107799053192139,-7.8008646965026855,-0.7567118406295776
1712834728989682000,2.592681884765625,-5.334776878356934,-10.05931282043457,-3.042804002761841
1712834729009682000,2.612681884765625,-6.926666259765625,-7.810800552368164,-4.6025543212890625
1712834729029682000,2.632681884765625,-6.667193412780762,-4.336424827575684,-6.423379421234131
1712834729049682000,2.652681884765625,-6.249622344970703,-4.452073097229004,-6.125851631164551
1712834729069682200,2.67268212890625,-3.4037187099456787,-2.6003212928771973,-7.438726425170898
1712834729089682200,2.69268212890625,-1.7817931175231934,-2.737976551055908,0.5485439300537109
1712834729109682200,2.71268212890625,-4.692427158355713,-0.40413951873779297,2.84624981880188
1712834729129682200,2.73268212890625,-7.101015567779541,1.0747356414794922,6.89141845703125
1712834729149682200,2.75268212890625,-7.149275779724121,1.6446237564086914,10.604384422302246
1712834729169682000,2.772681884765625,-6.375654220581055,2.786698341369629,13.35925006866455
1712834729189682000,2.792681884765625,-6.10455322265625,2.620997428894043,12.926655769348145
1712834729209682200,2.81268212890625,-6.373109817504883,3.252274513244629,8.985391616821289
1712834729229682200,2.83268212890625,-4.158318996429443,1.9592323303222656,0.10225212574005127
1712834729249682200,2.85268212890625,6.362786769866943,7.114067077636719,4.444648742675781
1712834729269682200,2.87268212890625,16.60730743408203,8.788793563842773,31.54972267150879
1712834729289682200,2.89268212890625,12.100738525390625,10.907357215881348,48.09375762939453
1712834729309682000,2.912681884765625,-1.0013182163238525,23.81279754638672,22.2810001373291
1712834729329682000,2.932681884765625,-9.831341743469238,25.296384811401367,-3.2540624141693115
1712834729349682000,2.952681884765625,-9.40493392944336,15.863025665283203,-16.215845108032227
1712834729369682000,2.972681884765625,-8.794632911682129,5.118664741516113,-5.319203853607178
1712834729389682000,2.992681884765625,-9.178893089294434,5.276683807373047,-5.541903972625732
1712834729409682000,3.012681884765625,3.4692201614379883,0.6274003982543945,-11.371234893798828
1712834729429682000,3.032681884765625,-0.7887043952941895,-5.510401725769043,-10.6410551071167
1712834729449682000,3.052681884765625,-6.629903793334961,-2.569920063018799,-11.31899356842041
1712834729469682000,3.072681884765625,-6.827498435974121,-2.4171156883239746,-10.793477058410645
1712834729489682000,3.092681884765625,-8.359874725341797,-4.563811302185059,-13.847744941711426
1712834729509682000,3.112681884765625,-5.276330947875977,-4.101065635681152,-4.032421588897705
1712834729529682000,3.132681884765625,-5.239365577697754,-6.285989761352539,-3.1748428344726562
1712834729549682000,3.152681884765625,-5.708847999572754,-7.789626598358154,-3.1949830055236816
1712834729569682200,3.17268212890625,-6.157778263092041,-7.6003851890563965,-3.6536223888397217
1712834729589682200,3.19268212890625,-5.04316520690918,-6.5253071784973145,-4.275617599487305
1712834729609682200,3.21268212890625,-4.833024024963379,-6.598001956939697,-4.079423904418945
1712834729629682200,3.23268212890625,-8.149555206298828,-4.889197826385498,-6.637041091918945
1712834729649682200,3.25268212890625,-7.9172892570495605,-5.064023494720459,-6.799997329711914
1712834729669682000,3.272681884765625,-10.103607177734375,-3.1271047592163086,-0.8118246793746948
1712834729689682000,3.292681884765625,-9.426864624023438,-1.7170515060424805,15.175291061401367
1712834729709682200,3.31268212890625,-9.549187660217285,-1.5986242294311523,16.253084182739258
1712834729729682200,3.33268212890625,-9.092158317565918,-1.806025505065918,15.838422775268555
1712834729749682200,3.35268212890625,-8.819914817810059,2.1341733932495117,11.304141998291016
1712834729769682200,3.37268212890625,-2.871659755706787,1.8018484115600586,-2.771989345550537
1712834729789682200,3.39268212890625,11.471549987792969,4.517919540405273,1.769562005996704
1712834729809682000,3.412681884765625,15.495206832885742,6.149508476257324,21.571874618530273
1712834729829682000,3.432681884765625,12.491360664367676,9.84975814819336,43.547149658203125
1712834729849682000,3.452681884765625,4.64299201965332,20.330970764160156,27.269935607910156
1712834729869682000,3.472681884765625,4.3596696853637695,20.433082580566406,27.157258987426758
1712834729889682000,3.492681884765625,-4.181155204772949,17.52652359008789,-6.58204984664917
1712834729909682000,3.512681884765625,-4.575896739959717,17.707504272460938,-6.725469589233398
1712834729929682000,3.532681884765625,-9.61085319519043,13.326048851013184,-8.426795959472656
1712834729949682000,3.552681884765625,0.908292293548584,3.401195526123047,-3.102938652038574
1712834729969682000,3.572681884765625,-3.836498975753784,-2.3906874656677246,-8.397529602050781
1712834729989682000,3.592681884765625,-6.407806396484375,-4.971475601196289,-13.505237579345703
1712834730009682000,3.612681884765625,-8.587906837463379,-3.8965213298797607,-13.581079483032227
1712834730029682000,3.632681884765625,-7.972879409790039,-4.991383075714111,-9.7183837890625
1712834730049682000,3.652681884765625,-7.8581132888793945,-4.223521709442139,-4.51400089263916
1712834730069682200,3.67268212890625,-7.918385028839111,-4.1250810623168945,-4.226311206817627
1712834730089682200,3.69268212890625,-5.512567043304443,-5.3375959396362305,-2.4228127002716064
1712834730109682200,3.71268212890625,-5.681473731994629,-6.035974979400635,-1.9264391660690308
1712834730129682200,3.73268212890625,-5.245460510253906,-5.232853889465332,-2.4497857093811035
1712834730149682200,3.75268212890625,-5.574723720550537,-6.030308723449707,-4.067593097686768
1712834730169682000,3.772681884765625,-5.395135879516602,-7.32608699798584,-2.7821686267852783
1712834730189682000,3.792681884765625,-6.219666004180908,-7.481083869934082,-2.718837261199951
1712834730209682200,3.81268212890625,-9.547887802124023,-2.584411144256592,-0.09007000923156738
1712834730229682200,3.83268212890625,-10.066186904907227,0.13189983367919922,3.338749885559082
1712834730249682200,3.85268212890625,-8.787871360778809,-0.8822007179260254,5.894361972808838
1712834730269682200,3.87268212890625,-9.37350082397461,-1.3101181983947754,6.281818866729736
1712834730289682200,3.89268212890625,-8.41403579711914,1.6263141632080078,8.619094848632812
1712834730309682000,3.912681884765625,-7.65968132019043,10.344778060913086,8.653287887573242
1712834730329682000,3.932681884765625,-4.344834804534912,5.105893135070801,-0.4213534891605377
1712834730349682000,3.952681884765625,5.676395416259766,5.125449180603027,2.482687473297119
1712834730369682000,3.972681884765625,15.324057579040527,6.939462661743164,15.960015296936035
1712834730389682000,3.992681884765625,12.90750789642334,6.281560897827148,45.12468338012695
1712834730409682000,4.012681884765625,5.7614030838012695,15.235660552978516,32.177818298339844
1712834730429682000,4.032681884765625,1.823136806488037,20.850994110107422,13.652493476867676
1712834730449682000,4.052681884765625,-5.236357688903809,21.639347076416016,-4.335376739501953
1712834730469682000,4.072681884765625,-10.845043182373047,13.881423950195312,-12.722846984863281
1712834730489682000,4.092681884765625,-1.619330883026123,6.981894493103027,-6.249761581420898
1712834730509682000,4.112681884765625,2.176419258117676,2.1903953552246094,-8.50825023651123
1712834730529682000,4.132681884765625,-5.649569511413574,-4.693759918212891,-11.584656715393066
1712834730549682000,4.152681884765625,-7.403987407684326,-7.2435078620910645,-14.485702514648438
1712834730569682200,4.17268212890625,-9.226574897766113,-3.4733667373657227,-7.759729862213135
1712834730589682200,4.19268212890625,-8.325104713439941,-3.0233407020568848,-1.7092374563217163
1712834730609682200,4.21268212890625,-8.430318832397461,-2.892854690551758,-1.5066537857055664
1712834730629682200,4.23268212890625,-7.046590328216553,-6.046148300170898,-2.0579469203948975
1712834730649682200,4.25268212890625,-5.463829517364502,-7.052502155303955,-2.6233294010162354
1712834730669682000,4.272681884765625,-5.803676605224609,-7.682784557342529,-3.942481517791748
1712834730689682000,4.292681884765625,-5.570400238037109,-7.757133483886719,-3.6434056758880615
1712834730709682200,4.31268212890625,-4.124639511108398,-4.941302299499512,-7.117792129516602
1712834730729682200,4.33268212890625,-7.328879356384277,-4.451458930969238,-7.400466442108154
1712834730749682200,4.35268212890625,-7.112113952636719,-4.691836357116699,-7.6628899574279785
1712834730769682200,4.37268212890625,-10.739579200744629,-0.12946510314941406,7.374316215515137
1712834730789682200,4.39268212890625,-8.257537841796875,-2.174055576324463,11.065929412841797
1712834730809682000,4.412681884765625,-8.415178298950195,-2.4511284828186035,11.051567077636719
1712834730829682000,4.432681884765625,-8.944751739501953,-0.6870832443237305,10.34925365447998
1712834730849682000,4.452681884765625,-8.461258888244629,-0.9097690582275391,10.045186996459961
1712834730869682000,4.472681884765625,-7.164514541625977,9.22433853149414,0.5145177841186523
1712834730889682000,4.492681884765625,1.8831372261047363,2.71547794342041,-0.24424511194229126
1712834730909682000,4.512681884765625,16.945045471191406,5.793924331665039,10.239192008972168
1712834730929682000,4.532681884765625,11.557470321655273,6.056640625,33.8270149230957
1712834730949682000,4.552681884765625,7.040299415588379,11.871152877807617,38.704402923583984
1712834730969682000,4.572681884765625,1.819044589996338,18.92431640625,17.292484283447266
1712834730989682000,4.592681884765625,-6.334073543548584,20.819860458374023,-5.314751625061035
1712834731009682000,4.612681884765625,-8.35146427154541,10.348978996276855,-15.090806007385254
1712834731029682000,4.632681884765625,-8.523262023925781,2.5121679306030273,-11.734502792358398
1712834731049682000,4.652681884765625,-1.5721981525421143,2.144228935241699,-7.400172233581543
1712834731069682200,4.67268212890625,-1.9438540935516357,2.357724189758301,-7.199364185333252
1712834731089682200,4.69268212890625,3.7232255935668945,-0.7054009437561035,-5.0762128829956055
1712834731109682200,4.71268212890625,-4.1718549728393555,-4.785860061645508,-6.6187520027160645
1712834731129682200,4.73268212890625,-7.264279365539551,-3.999573230743408,-8.248236656188965
1712834731149682200,4.75268212890625,-7.472177028656006,-3.7793703079223633,-6.4708571434021
1712834731169682000,4.772681884765625,-7.208329200744629,-3.546360492706299,-2.595473527908325
1712834731189682000,4.792681884765625,-6.481936931610107,-3.5445356369018555,-0.6598241329193115
1712834731209682200,4.81268212890625,-6.084695339202881,-4.2979021072387695,-0.9689505100250244
1712834731229682200,4.83268212890625,-6.756869792938232,-5.878159046173096,-1.8872277736663818
1712834731249682200,4.85268212890625,-6.501211166381836,-5.929696559906006,-1.6439876556396484
1712834731269682200,4.87268212890625,-4.926629543304443,-5.984067440032959,-5.917438507080078
1712834731289682200,4.89268212890625,-5.051326274871826,-2.693714141845703,-6.451892852783203
1712834731309682000,4.912681884765625,-8.01000690460205,2.2581491470336914,-1.0016708374023438
1712834731329682000,4.932681884765625,-9.623039245605469,4.488144397735596,6.566962242126465
1712834731349682000,4.952681884765625,-8.75706958770752,2.0258378982543945,11.919888496398926
1712834731369682000,4.972681884765625,-7.5669426918029785,0.3167085647583008,13.426506042480469
1712834731389682000,4.992681884765625,-6.690450191497803,1.6708993911743164,12.927056312561035
1712834731409682000,5.012681884765625,-7.646598815917969,2.695310592651367,6.802746295928955
1712834731429682000,5.032681884765625,-7.322953224182129,2.5453872680664062,6.750247955322266
1712834731449682000,5.052681884765625,3.4933903217315674,2.401444435119629,1.8336536884307861
1712834731469682000,5.072681884765625,3.4766852855682373,2.406437873840332,1.8253724575042725
1712834731489682000,5.092681884765625,14.02992057800293,3.573086738586426,12.119686126708984
1712834731509648600,5.112648681640625,7.269358158111572,12.49537467956543,34.47284698486328
1712834731529615400,5.132615478515625,1.5073282718658447,19.30062484741211,15.352916717529297
1712834731549582000,5.15258203125,-1.766254186630249,18.43069839477539,-1.635735034942627
1712834731569548500,5.172548583984375,-3.032477378845215,13.479207038879395,-12.504583358764648
1712834731589515300,5.192515380859375,-8.84443473815918,4.768815994262695,-11.53256607055664
1712834731609482000,5.21248193359375,1.2093524932861328,3.4072256088256836,-8.257904052734375
1712834731629448700,5.23244873046875,2.9351139068603516,-0.7539381980895996,-4.529433250427246
1712834731649415400,5.25241552734375,-1.972174882888794,-3.6841297149658203,-4.532934188842773
1712834731669381600,5.272381591796875,-4.396417140960693,-3.8135080337524414,-6.692928314208984
1712834731689348400,5.292348388671875,-6.288482666015625,-2.717247486114502,-5.479903221130371
1712834731709315000,5.312315185546875,-6.016327381134033,-2.548551559448242,-3.0614423751831055
1712834731729281800,5.33228173828125,-6.059499740600586,-2.385122776031494,-2.7474913597106934
1712834731749248300,5.352248291015625,-6.690268039703369,-3.447950601577759,-1.3521740436553955
1712834731769215000,5.372215087890625,-5.841821193695068,-4.356612205505371,-0.5250504016876221
1712834731789182000,5.392181884765625,-5.760502815246582,-4.865846633911133,0.022975921630859375
1712834731809148400,5.4121484375,-5.172769069671631,-5.031391143798828,-1.1217851638793945
1712834731829115000,5.432114990234375,-4.563226222991943,-4.815328598022461,-2.4376797676086426
1712834731849081600,5.45208154296875,-4.401476860046387,-4.9839372634887695,-2.5310707092285156
1712834731869048300,5.47204833984375,-5.214937686920166,-4.616539478302002,-2.3709030151367188
1712834731889015000,5.49201513671875,-6.727038860321045,-1.2798490524291992,3.837136745452881
1712834731908981800,5.511981689453125,-5.578217029571533,-2.440429210662842,5.017396926879883
1712834731928948500,5.531948486328125,-6.285650730133057,-3.5447168350219727,3.7428083419799805
1712834731948915200,5.551915283203125,-8.659854888916016,-1.00474214553833,4.956517219543457
1712834731968882000,5.5718818359375,-7.756099700927734,4.930610656738281,7.463499069213867
1712834731988848600,5.5918486328125,-6.536473274230957,9.542778015136719,4.748297691345215
1712834732008815000,5.611815185546875,-0.196455717086792,1.6176204681396484,-0.17570960521697998
1712834732028781800,5.63178173828125,14.446163177490234,4.437982559204102,6.27608585357666
1712834732048748500,5.65174853515625,11.510159492492676,4.339043617248535,24.156225204467773
1712834732068715300,5.67171533203125,11.413403511047363,4.356247901916504,23.99692726135254
1712834732088682000,5.691681884765625,2.221687078475952,17.264781951904297,20.190574645996094
1712834732108682000,5.711681884765625,-2.135037422180176,17.931377410888672,1.8876488208770752
1712834732128682000,5.731681884765625,-6.807260036468506,15.0751314163208,-7.2128987312316895
1712834732148682000,5.751681884765625,-6.826889991760254,15.08679485321045,-7.1436767578125
1712834732168682000,5.771681884765625,3.6080093383789062,4.995987892150879,-4.614393711090088
1712834732188682000,5.791681884765625,3.8376975059509277,-0.6835203170776367,-6.83769416809082
1712834732208682000,5.811681884765625,-1.4531559944152832,-6.190609931945801,-12.452893257141113
1712834732228682000,5.831681884765625,-6.717324256896973,-7.300543308258057,-15.57424259185791
1712834732248682000,5.851681884765625,-9.956209182739258,-5.223479270935059,-9.619183540344238
1712834732268682000,5.871681884765625,-9.134822845458984,-3.6443676948547363,-1.2212249040603638
1712834732288682200,5.89168212890625,-5.557455539703369,-4.357010841369629,1.826702356338501
1712834732308682200,5.91168212890625,-3.753908634185791,-7.393080234527588,0.040044546127319336
1712834732328682200,5.93168212890625,-3.735349655151367,-7.349626064300537,0.24868345260620117
1712834732348682200,5.95168212890625,-5.1822404861450195,-6.5892181396484375,-3.2408318519592285
1712834732368682200,5.97168212890625,-4.993701457977295,-6.620388031005859,-2.987083911895752
1712834732388682000,5.991681884765625,-2.9439167976379395,-5.194810390472412,-6.21480655670166
1712834732408682000,6.011681884765625,-6.338976860046387,-2.3913464546203613,-6.7992072105407715
1712834732428682200,6.03168212890625,-7.186974048614502,1.1402616500854492,0.6783370971679688
1712834732448682200,6.05168212890625,-6.99827241897583,1.9432258605957031,7.24250602722168
1712834732468682200,6.07168212890625,-7.948996067047119,-0.5282840728759766,8.78501033782959
1712834732488682200,6.09168212890625,-7.7543792724609375,-0.6940803527832031,8.25747013092041
1712834732508682200,6.11168212890625,-8.441869735717773,8.546157836914062,10.211076736450195
1712834732528682000,6.131681884765625,-5.712638854980469,3.8960161209106445,2.065714120864868
1712834732548682000,6.151681884765625,7.026528358459473,3.02740478515625,4.0109782218933105
1712834732568682000,6.171681884765625,17.01271629333496,3.3160829544067383,17.26227378845215
1712834732588682000,6.191681884765625,16.73086166381836,3.4123430252075195,17.156530380249023
1712834732608682000,6.211681884765625,5.118098258972168,14.469992637634277,26.109664916992188
1712834732628682000,6.231681884765625,0.11263442039489746,20.708518981933594,7.511885166168213
1712834732648682000,6.251681884765625,-3.7243800163269043,16.89861297607422,-10.125839233398438
1712834732668682000,6.271681884765625,-4.990574836730957,7.336789131164551,-15.080644607543945
1712834732688682000,6.291681884765625,-3.9687623977661133,1.1927642822265625,-10.251009941101074
1712834732708682000,6.311681884765625,-4.314277172088623,1.3767576217651367,-10.300816535949707
1712834732728682000,6.331681884765625,2.49564266204834,2.045999526977539,1.8033852577209473
1712834732748682000,6.351681884765625,0.7034101486206055,-3.7158946990966797,-2.221071720123291
1712834732768682000,6.371681884765625,-4.95284366607666,-5.890227317810059,-6.489133834838867
1712834732788682200,6.39168212890625,-4.994863986968994,-5.75705099105835,-6.02199649810791
1712834732808682200,6.41168212890625,-8.58692455291748,-4.4360761642456055,-6.2566938400268555
1712834732828682200,6.43168212890625,-6.275197505950928,-5.841945648193359,-2.8683149814605713
1712834732848682200,6.45168212890625,-6.26369047164917,-5.7722578048706055,-2.6576192378997803
1712834732868682200,6.47168212890625,-6.105360507965088,-6.651029586791992,-1.012911081314087
1712834732888682000,6.491681884765625,-4.897469520568848,-5.192621231079102,-2.418553113937378
1712834732908682000,6.511681884765625,-4.125942230224609,-4.512150764465332,-3.8354859352111816
1712834732928682200,6.53168212890625,-3.9445383548736572,-4.641189098358154,-3.84088397026062
1712834732948682200,6.55168212890625,-6.7650346755981445,-2.4870047569274902,-1.0256047248840332
1712834732968682200,6.57168212890625,-5.633484363555908,-1.7570104598999023,2.4404680728912354
1712834732988682200,6.59168212890625,-8.078609466552734,-2.651156425476074,3.3371660709381104
1712834733008682200,6.61168212890625,-9.704623222351074,-0.8612709045410156,5.487503528594971
1712834733028682000,6.631681884765625,-9.665409088134766,2.8880605697631836,8.761079788208008
1712834733048682000,6.651681884765625,-8.825845718383789,11.447467803955078,9.902068138122559
1712834733068682000,6.671681884765625,-8.462608337402344,11.29142951965332,9.788127899169922
1712834733088682000,6.691681884765625,1.1595311164855957,2.4360504150390625,0.32343995571136475
1712834733108682000,6.711681884765625,15.538053512573242,3.8672542572021484,11.73146915435791
1712834733128682000,6.731681884765625,12.299413681030273,5.798120498657227,38.67835998535156
1712834733148682000,6.751681884765625,6.908052444458008,7.827909469604492,32.6917610168457
1712834733168682000,6.771681884765625,-0.44402551651000977,13.541609764099121,14.695577621459961
1712834733188682000,6.791681884765625,-3.770477533340454,18.472854614257812,-0.19512802362442017
1712834733208682000,6.811681884765625,-6.745973110198975,11.114057540893555,-10.63316535949707
1712834733228682000,6.831681884765625,-6.500301837921143,3.5071849822998047,-7.079344749450684
1712834733248682000,6.851681884765625,6.138332843780518,3.835643768310547,-3.2746715545654297
1712834733268682000,6.871681884765625,5.725214004516602,4.0796403884887695,-3.0237040519714355
1712834733288682200,6.89168212890625,-2.2192087173461914,-6.763692378997803,-11.124353408813477
1712834733308682200,6.91168212890625,-6.1027069091796875,-7.851340293884277,-14.779376983642578
1712834733328682200,6.93168212890625,-8.68075942993164,-3.596841335296631,-9.100570678710938
1712834733348682200,6.95168212890625,-8.299589157104492,-3.2132763862609863,-3.8971996307373047
1712834733368682200,6.97168212890625,-6.506420612335205,-3.738656997680664,-0.023105621337890625
1712834733388682000,6.991681884765625,-6.571965217590332,-3.625617027282715,0.1419963836669922
1712834733408682000,7.011681884765625,-5.503653526306152,-6.148353576660156,0.9287130832672119
1712834733428682200,7.03168212890625,-5.144764423370361,-5.284186363220215,0.7432498931884766
1712834733448682200,7.05168212890625,-4.374630928039551,-4.20034122467041,-1.2999861240386963
1712834733468682200,7.07168212890625,-5.403717994689941,-3.5435547828674316,-3.9043140411376953
1712834733488682200,7.09168212890625,-5.38415002822876,-1.7544126510620117,-0.6965293884277344
1712834733508682200,7.11168212890625,-8.104750633239746,-0.46062326431274414,3.992347002029419
1712834733528682000,7.131681884765625,-8.083230972290039,0.10590839385986328,8.360082626342773
1712834733548682000,7.151681884765625,-8.138285636901855,-1.0113372802734375,8.962688446044922
1712834733568682000,7.171681884765625,-8.375736236572266,0.46240711212158203,7.936797618865967
1712834733588682000,7.191681884765625,-7.382587432861328,8.497623443603516,7.510831832885742
1712834733608682000,7.211681884765625,-5.336920261383057,5.788660049438477,1.5381660461425781
1712834733628682000,7.231681884765625,9.35149097442627,2.206472396850586,0.7073638439178467
1712834733648682000,7.251681884765625,9.256915092468262,2.2413339614868164,0.7252508401870728
1712834733668682000,7.271681884765625,16.926044464111328,0.9217462539672852,18.51974868774414
1712834733688682000,7.291681884765625,11.097177505493164,5.967367172241211,41.04969024658203
1712834733708682000,7.311681884765625,-1.3393049240112305,19.7962646484375,7.61320161819458
1712834733728682000,7.331681884765625,-1.4041528701782227,19.822996139526367,7.711413383483887
1712834733748682000,7.351681884765625,-0.9863028526306152,6.62370491027832,-7.997317314147949
1712834733768682000,7.371681884765625,-1.3241462707519531,6.779088020324707,-7.960757255554199
1712834733788682200,7.39168212890625,-2.756528377532959,4.288612365722656,-5.610213279724121
1712834733808682200,7.41168212890625,0.3580136299133301,3.730740547180176,-2.3560187816619873
1712834733828682200,7.43168212890625,-1.1499414443969727,-3.1815929412841797,-7.434015274047852
1712834733848682200,7.45168212890625,-5.696545600891113,-4.695228576660156,-10.130504608154297
1712834733868682200,7.47168212890625,-8.349603652954102,-3.016432762145996,-7.274387359619141
1712834733888682000,7.491681884765625,-5.964622497558594,-1.9502592086791992,-1.9588346481323242
1712834733908682000,7.511681884765625,-5.28965425491333,-4.52286434173584,-0.42308735847473145
1712834733928682200,7.53168212890625,-5.365679740905762,-4.397861003875732,-0.2090752124786377
1712834733948682200,7.55168212890625,-5.533675670623779,-6.409290790557861,-1.9938857555389404
1712834733968682200,7.57168212890625,-5.401719570159912,-6.412632942199707,-1.7225048542022705
1712834733988682200,7.59168212890625,-5.02312707901001,-6.611175060272217,-4.247188568115234
1712834734008682200,7.61168212890625,-4.76265811920166,-5.89449405670166,-5.899078369140625
1712834734028682000,7.631681884765625,-6.112142086029053,-4.578090667724609,-6.023530006408691
1712834734048682000,7.651681884765625,-7.868088245391846,-2.38926362991333,-3.0747129917144775
1712834734068682000,7.671681884765625,-8.3884859085083,1.2870750427246094,2.2529854774475098
1712834734088682000,7.691681884765625,-8.902093887329102,0.28247642517089844,6.6034040451049805
1712834734108682000,7.711681884765625,-8.316073417663574,-2.2210469245910645,9.270256042480469
1712834734128682000,7.731681884765625,-9.666242599487305,-1.456535816192627,12.725650787353516
1712834734148682000,7.751681884765625,-9.298111915588379,4.452842712402344,12.331794738769531
1712834734168682000,7.771681884765625,-8.611656188964844,15.480059623718262,7.622500896453857
1712834734188682000,7.791681884765625,-4.050455093383789,1.4671516418457031,-2.3148984909057617
1712834734208682000,7.811681884765625,-3.9348196983337402,1.4445581436157227,-2.154629707336426
1712834734228682000,7.831681884765625,14.279563903808594,4.271416664123535,6.547929286956787
1712834734248682000,7.851681884765625,12.685443878173828,8.08597183227539,41.383514404296875
1712834734268682000,7.871681884765625,12.586800575256348,8.105951309204102,41.08943176269531
1712834734288682200,7.89168212890625,-7.539613723754883,21.417560577392578,-4.409478187561035
1712834734308682200,7.91168212890625,-7.592494964599609,21.449663162231445,-4.199721336364746
1712834734328682200,7.93168212890625,-5.139854907989502,1.7660226821899414,-9.550959587097168
1712834734348682200,7.95168212890625,1.535996437072754,0.009856224060058594,-3.7315361499786377
1712834734368682200,7.97168212890625,2.5871405601501465,1.9540939331054688,0.22732874751091003
1712834734388682000,7.991681884765625,2.1500802040100098,2.2561092376708984,0.659309983253479
1712834734408682000,8.011681884765625,0.8476758003234863,-2.739762306213379,-6.618607044219971
1712834734428682200,8.03168212890625,-5.575649261474609,-3.1353845596313477,-6.922075271606445
1712834734448682200,8.05168212890625,-5.694012641906738,-2.9000654220581055,-6.471796035766602
1712834734468682200,8.07168212890625,-6.710774898529053,-3.8186521530151367,-3.874861717224121
1712834734488682200,8.09168212890625,-5.858828067779541,-2.7856826782226562,-0.45745086669921875
1712834734508682200,8.11168212890625,-4.704073905944824,-2.341221809387207,1.841914415359497
1712834734528682000,8.131681884765625,-4.633550643920898,-2.234816551208496,2.1274209022521973
1712834734548682000,8.151681884765624,-5.041199684143066,-4.218090057373047,0.5902037620544434
1712834734568682000,8.171681884765626,-4.457718849182129,-3.705827236175537,-0.8623175621032715
1712834734588682000,8.191681884765625,-4.729728698730469,-3.065020799636841,-2.3817496299743652
1712834734608682000,8.211681884765625,-4.482505798339844,-1.1497540473937988,-0.5435051918029785
1712834734628682000,8.231681884765624,-4.4729766845703125,-1.3605666160583496,-0.8615841865539551
1712834734648682000,8.251681884765626,-4.093024730682373,-2.1357474327087402,0.567307710647583
1712834734668682000,8.271681884765625,-9.217412948608398,-0.6578030586242676,7.4707932472229
1712834734688682000,8.291681884765625,-8.931038856506348,-0.4962902069091797,8.55698299407959
1712834734708682000,8.311681884765624,-8.669315338134766,0.17524242401123047,9.464065551757812
1712834734728682000,8.331681884765626,-5.9125776290893555,8.775612831115723,9.928759574890137
1712834734748682000,8.351681884765625,-5.3089799880981445,7.610781669616699,1.9752697944641113
1712834734768682000,8.371681884765625,6.663092136383057,2.4412879943847656,0.7944126129150391
1712834734788682200,8.39168212890625,6.59918212890625,2.47464656829834,0.8576701283454895
1712834734808682200,8.41168212890625,20.884845733642578,2.2293224334716797,10.371452331542969
1712834734828682200,8.43168212890625,7.840794563293457,10.466320037841797,30.425140380859375
1712834734848682200,8.45168212890625,2.6773436069488525,15.405435562133789,12.201669692993164
1712834734868682200,8.47168212890625,-0.6572470664978027,14.71186351776123,-0.39455682039260864
1712834734888682000,8.491681884765624,-1.5687997341156006,9.740532875061035,-6.4681267738342285
1712834734908682000,8.511681884765625,-5.036485195159912,6.1447248458862305,-2.665817975997925
1712834734928682200,8.53168212890625,0.17780303955078125,4.795816421508789,-0.04075467586517334
1712834734948682200,8.55168212890625,4.174872398376465,0.8455362319946289,-1.6726772785186768
1712834734968682200,8.57168212890625,-2.58123517036438,-4.561264991760254,-5.609817028045654
1712834734988682200,8.59168212890625,-6.949065208435059,-7.07078742980957,-12.03198528289795
1712834735008682200,8.61168212890625,-10.931013107299805,-5.299347877502441,-11.885553359985352
1712834735028682000,8.631681884765625,-8.806511878967285,-4.14827823638916,-4.4374847412109375
1712834735048682000,8.651681884765624,-6.841800212860107,-5.167091369628906,0.5233902931213379
1712834735068682000,8.671681884765626,-5.681666374206543,-6.895152568817139,1.4285732507705688
1712834735088682000,8.691681884765625,-5.643431186676025,-6.868749141693115,1.5634592771530151
1712834735108682000,8.711681884765625,-3.5679335594177246,-7.979628562927246,-0.14107441902160645
1712834735128682000,8.731681884765624,-6.527904510498047,-3.9766135215759277,-3.0900967121124268
1712834735148682000,8.751681884765626,-4.264504432678223,-2.6851181983947754,-0.37285947799682617
1712834735168682000,8.771681884765625,-5.883307933807373,-3.539416790008545,0.05893516540527344
1712834735188682000,8.791681884765625,-6.922197341918945,-1.3845129013061523,2.3902032375335693
1712834735208682000,8.811681884765624,-7.493888854980469,0.10667133331298828,4.005772590637207
1712834735228682000,8.831681884765626,-7.762871742248535,0.6120691299438477,5.211065292358398
1712834735248682000,8.851681884765625,-6.847311973571777,2.714712142944336,6.231147766113281
1712834735268682000,8.871681884765625,-5.998143196105957,12.665486335754395,7.488779544830322
1712834735288682200,8.89168212890625,-0.6869494915008545,2.8889875411987305,2.2545065879821777
1712834735308682200,8.91168212890625,12.508243560791016,2.2510128021240234,8.294154167175293
1712834735328682200,8.93168212890625,12.414575576782227,2.2895326614379883,8.350438117980957
1712834735348682200,8.95168212890625,6.150933742523193,7.265572547912598,37.37299346923828
1712834735368682200,8.97168212890625,6.136203289031982,7.2593841552734375,37.038516998291016
1712834735388682000,8.991681884765624,-0.32057619094848633,17.24248695373535,1.6646932363510132
1712834735408682000,9.011681884765625,-0.4082460403442383,17.28649139404297,1.9285361766815186
1712834735428682200,9.03168212890625,-5.667659282684326,4.341525077819824,-7.599758625030518
1712834735448682200,9.05168212890625,-5.866194725036621,4.430387496948242,-7.569519996643066
1712834735468682200,9.07168212890625,6.991879463195801,-0.27680397033691406,-2.268062114715576
1712834735488682200,9.09168212890625,1.1839599609375,-5.969563007354736,-4.492698669433594
1712834735508682200,9.11168212890625,-2.4706919193267822,-5.920936584472656,-7.92001485824585
1712834735528682000,9.131681884765625,-5.340071201324463,-2.247195243835449,-8.220321655273438
1712834735548682000,9.151681884765624,-5.422022342681885,-2.1182494163513184,-7.8972978591918945
1712834735568682000,9.171681884765626,-6.712779998779297,-4.193670272827148,-2.6701648235321045
1712834735588682000,9.191681884765625,-6.787982940673828,-4.076329231262207,-2.461437225341797
1712834735608682000,9.211681884765625,-4.766880989074707,-7.616945743560791,-1.8334629535675049
1712834735628682000,9.231681884765624,-4.918715476989746,-7.8779730796813965,-2.653276205062866
1712834735648682000,9.251681884765626,-4.71301794052124,-7.992613792419434,-2.587862253189087
1712834735668682000,9.271681884765625,-4.719325065612793,-1.945847988128662,1.5978760719299316
1712834735688682000,9.291681884765625,-3.5508105754852295,-1.6644573211669922,1.1517341136932373
1712834735708682000,9.311681884765624,-3.4197566509246826,-1.849726676940918,0.7826273441314697
1712834735728682000,9.331681884765626,-6.286314964294434,-0.8541073799133301,3.0009334087371826
1712834735748682000,9.351681884765625,-7.362216472625732,-0.3711404800415039,4.924557685852051
1712834735768682000,9.371681884765625,-6.2376508712768555,3.729475975036621,6.079524517059326
1712834735788682200,9.39168212890625,-5.887908935546875,3.565526008605957,5.757551670074463
1712834735808682200,9.41168212890625,2.062987804412842,0.7803573608398438,3.227553367614746
1712834735828682200,9.43168212890625,15.441514015197754,0.5439128875732422,10.015859603881836
1712834735848682200,9.45168212890625,7.197271823883057,0.11226940155029297,30.076868057250977
1712834735868682200,9.47168212890625,7.105098724365234,0.1447925567626953,29.777385711669922
1712834735888682000,9.491681884765624,4.784974575042725,12.878289222717285,12.180839538574219
1712834735908682000,9.511681884765625,4.578022003173828,12.965786933898926,12.140691757202148
1712834735928682200,9.53168212890625,0.07666349411010742,10.757187843322754,-5.5945000648498535
1712834735948682200,9.55168212890625,-4.597015857696533,6.090085029602051,-3.7045743465423584
1712834735968682200,9.57168212890625,1.630692481994629,4.131655693054199,0.17631381750106812
1712834735988682200,9.59168212890625,3.5966038703918457,-1.0732111930847168,0.5222308039665222
1712834736008682200,9.61168212890625,3.191506862640381,-0.8261570930480957,0.7807840704917908
1712834736028682000,9.631681884765625,-4.912744522094727,-3.241973400115967,-5.884929180145264
1712834736048682000,9.651681884765624,-8.091521263122559,-2.5606889724731445,-8.316887855529785
1712834736068682000,9.671681884765626,-7.629487037658691,-4.699518203735352,-6.325041770935059
1712834736088682000,9.691681884765625,-7.2006707191467285,-6.2123122215271,-3.5923948287963867
1712834736108682000,9.711681884765625,-7.182631015777588,-6.194967269897461,-3.3963985443115234
1712834736128682000,9.731681884765624,-6.2237548828125,-7.208684921264648,-2.7519476413726807
1712834736148682000,9.751681884765626,-3.4183905124664307,-7.7429986000061035,-5.538194179534912
1712834736168682000,9.771681884765625,-3.1752994060516357,-7.884109973907471,-5.424306869506836
1712834736188682000,9.791681884765625,-3.1666316986083984,-8.490304946899414,-7.692972183227539
1712834736208682000,9.811681884765624,-4.32546854019165,-1.96842622756958,-5.246659755706787
1712834736228682000,9.831681884765626,-6.938735485076904,1.1407127380371094,-2.5157480239868164
1712834736248682000,9.851681884765625,-6.623145580291748,0.9375886917114258,-2.958475112915039
1712834736268682000,9.871681884765625,-7.868054389953613,0.4419231414794922,4.715700626373291
1712834736288682200,9.89168212890625,-6.130474090576172,2.445176124572754,6.193243503570557
1712834736308682200,9.91168212890625,-4.065391540527344,10.125659942626953,8.015775680541992
1712834736328682200,9.93168212890625,-2.445568084716797,4.150514602661133,3.9775288105010986
1712834736348682200,9.95168212890625,-2.39420747756958,4.131899833679199,4.162347793579102
1712834736368682200,9.97168212890625,12.294597625732422,0.39484214782714844,11.3268461227417
1712834736388682000,9.991681884765624,9.896493911743164,8.543400764465332,29.02769660949707
1712834736408682000,10.011681884765625,9.695075988769531,8.620537757873535,28.852506637573242
1712834736428682200,10.03168212890625,3.2540481090545654,11.62224006652832,11.127303123474121
1712834736448682200,10.05168212890625,-1.4245309829711914,6.712926864624023,-9.586507797241211
1712834736468682200,10.07168212890625,-0.4184839725494385,2.126378059387207,-7.943265438079834
1712834736488682200,10.09168212890625,-0.4900345802307129,2.5650672912597656,-2.0205745697021484
1712834736508682200,10.11168212890625,5.132911205291748,1.6305828094482422,1.1969060897827148
1712834736528682000,10.131681884765625,3.246175765991211,-4.152955532073975,-2.200782537460327
1712834736548682000,10.151681884765624,-1.300889015197754,-4.958624839782715,-6.194945812225342
1712834736568682000,10.171681884765626,-1.4699807167053223,-4.762382984161377,-5.743227481842041
1712834736588682000,10.191681884765625,-8.577492713928223,-2.5360732078552246,-5.863316535949707
1712834736608682000,10.211681884765625,-5.640488147735596,-3.786165952682495,-1.4038952589035034
1712834736628682000,10.231681884765624,-5.746171951293945,-3.684626340866089,-1.3378043174743652
1712834736648682000,10.251681884765626,-4.462389945983887,-6.791556358337402,0.4144681692123413
1712834736668682000,10.271681884765625,-5.729106903076172,-6.565877914428711,-0.0638580322265625
1712834736688682000,10.291681884765625,-5.295814037322998,-7.275099754333496,-2.287686824798584
1712834736708682000,10.311681884765624,-4.761867046356201,-7.026988506317139,-4.381043910980225
1712834736728682000,10.331681884765626,-6.19352388381958,-4.481108665466309,-5.888981819152832
1712834736748682000,10.351681884765625,-8.959257125854492,-1.4503135681152344,-2.7482542991638184
1712834736768682000,10.371681884765625,-6.755990982055664,-0.5035109519958496,1.3288096189498901
1712834736788682200,10.39168212890625,-8.684837341308594,-0.07212257385253906,4.118418216705322
1712834736808682200,10.41168212890625,-7.84637975692749,0.22299575805664062,4.86836576461792
1712834736828682200,10.43168212890625,-6.821499347686768,7.776001930236816,7.411325454711914
1712834736848682200,10.45168212890625,-9.804899215698242,9.66153335571289,5.769016265869141
1712834736868682200,10.47168212890625,-9.492431640625,9.564284324645996,5.980001449584961
1712834736888682000,10.491681884765624,15.067378044128418,1.8064708709716797,9.63753890991211
1712834736908682000,10.511681884765625,12.318063735961914,5.618851661682129,38.2586784362793
1712834736928682200,10.53168212890625,6.444072723388672,12.113860130310059,19.210935592651367
1712834736948682200,10.55168212890625,-0.874887228012085,17.12432289123535,0.9423945546150208
1712834736968682200,10.57168212890625,-1.199580430984497,10.892026901245117,-7.5754923820495605
1712834736988682200,10.59168212890625,1.4755005836486816,5.601268768310547,-6.198960304260254
1712834737008682200,10.61168212890625,2.0863547325134277,2.683847427368164,-1.471719741821289
1712834737028682000,10.631681884765625,5.53000545501709,2.3544578552246094,0.6451393365859985
1712834737048682000,10.651681884765624,2.5586724281311035,-0.5024051666259766,-2.244028329849243
1712834737068682000,10.671681884765626,-2.6784775257110596,-3.339423656463623,-7.296650409698486
1712834737088682000,10.691681884765625,-6.76177978515625,-1.6884698867797852,-8.416193008422852
1712834737108682000,10.711681884765625,-9.752838134765625,-1.7170543670654297,-5.488322734832764
1712834737128682000,10.731681884765624,-8.080511093139648,-3.1940789222717285,-0.8495553135871887
1712834737148682000,10.751681884765626,-6.165084362030029,-6.505219459533691,-0.5441139340400696
1712834737168682000,10.771681884765625,-5.662197113037109,-8.295154571533203,-1.6276863813400269
1712834737188682000,10.791681884765625,-5.6463751792907715,-8.274237632751465,-1.3739756345748901
1712834737208682000,10.811681884765624,-6.16642427444458,-9.223572731018066,-4.619731903076172
1712834737228682000,10.831681884765626,-5.206322193145752,-7.846108913421631,-8.77510929107666
1712834737248682000,10.851681884765625,-5.3901448249816895,-6.509300708770752,-9.138991355895996
1712834737268682000,10.871681884765625,-7.22166633605957,-3.1211252212524414,-10.063838005065918
1712834737288682200,10.89168212890625,-6.781140327453613,-3.4690299034118652,-10.286742210388184
1712834737308682200,10.91168212890625,-8.461402893066406,1.6605043411254883,-5.968480110168457
1712834737328682200,10.93168212890625,-8.429367065429688,2.2875661849975586,1.5066564083099365
1712834737348682200,10.95168212890625,-8.238435745239258,-0.2166423797607422,7.639536380767822
1712834737368682200,10.97168212890625,-5.496786117553711,9.026062965393066,12.001340866088867
1712834737388682000,10.991681884765624,-7.197870254516602,15.301920890808105,9.265311241149902
1712834737408682000,11.011681884765625,1.895500659942627,0.1585216522216797,5.738995552062988
1712834737428682200,11.03168212890625,14.118551254272461,2.735105514526367,23.942684173583984
1712834737448682200,11.05168212890625,13.944232940673828,2.7940263748168945,23.78505516052246
1712834737468682200,11.07168212890625,7.175717830657959,9.359124183654785,24.549663543701172
1712834737488682200,11.09168212890625,7.039961814880371,9.417670249938965,24.420717239379883
1712834737508682200,11.11168212890625,-0.19073152542114258,12.857837677001953,-3.2244632244110107
1712834737528682000,11.131681884765625,-0.42333102226257324,12.957533836364746,-3.1936511993408203
1712834737548682000,11.151681884765624,-3.2615394592285156,7.377291679382324,-4.506865501403809
1712834737568682000,11.171681884765626,5.156358242034912,3.0394983291625977,1.0092946290969849
1712834737588682000,11.191681884765625,3.02980899810791,-1.5020313262939453,-3.422084093093872
1712834737608682000,11.211681884765625,-0.4252028465270996,-4.07255744934082,-9.543410301208496
1712834737628682000,11.231681884765624,-5.486996650695801,-5.438166618347168,-13.867324829101562
1712834737648682000,11.251681884765626,-8.557743072509766,-5.7710981369018555,-12.332673072814941
1712834737668682000,11.271681884765625,-9.717331886291504,-5.866644859313965,-5.599785804748535
1712834737688682000,11.291681884765625,-9.829095840454102,-5.770140647888184,-5.59464168548584
1712834737708682000,11.311681884765624,-5.701624870300293,-7.495296478271484,1.5249130725860596
1712834737728682000,11.331681884765626,-5.6962175369262695,-7.470088958740234,1.6566457748413086
1712834737748682000,11.351681884765625,-4.969845294952393,-8.46573543548584,1.0618908405303955
1712834737768682000,11.371681884765625,-8.199291229248047,-6.630850315093994,-3.00626540184021
1712834737788682200,11.39168212890625,-7.866269111633301,-6.835755825042725,-2.8420093059539795
1712834737808682200,11.41168212890625,-6.813761234283447,-3.5696873664855957,-4.243742942810059
1712834737828682200,11.43168212890625,-5.4304351806640625,3.061229705810547,0.44097208976745605
1712834737848682200,11.45168212890625,-5.247346878051758,2.834305763244629,-0.13349533081054688
1712834737868682200,11.47168212890625,1.8044342994689941,7.749134063720703,7.6267290115356445
1712834737888682000,11.491681884765624,-0.014754295349121094,0.6821413040161133,2.73148250579834
1712834737908682000,11.511681884765625,0.17381763458251953,0.5833635330200195,2.699626922607422
1712834737928682200,11.53168212890625,-0.9224581718444824,2.2120208740234375,10.731985092163086
1712834737948682200,11.55168212890625,0.10464715957641602,1.0434093475341797,18.692358016967773
1712834737968682200,11.57168212890625,0.04535341262817383,1.0629377365112305,18.343830108642578
1712834737988682200,11.59168212890625,11.66836166381836,7.149393081665039,27.07855987548828
1712834738008682200,11.61168212890625,11.471553802490234,7.256316184997559,27.019006729125977
1712834738028682000,11.631681884765625,4.446444034576416,8.474359512329102,2.308220148086548
1712834738048682000,11.651681884765624,1.9601225852966309,10.638731956481934,-4.288559436798096
1712834738068682000,11.671681884765626,-8.73423957824707,7.652912139892578,-11.123114585876465
1712834738088682000,11.691681884765625,-8.948690414428711,7.820187568664551,-10.852315902709961
1712834738108682000,11.711681884765625,8.184003829956055,0.472078800201416,2.988877534866333
1712834738128682000,11.731681884765624,0.10099029541015625,-5.1712446212768555,-3.4461708068847656
1712834738148682000,11.751681884765626,-2.7371907234191895,-4.407975196838379,-10.61742877960205
1712834738168682000,11.771681884765625,-8.149784088134766,-2.970752239227295,-11.243372917175293
1712834738188682000,11.791681884765625,-9.082106590270996,-2.726426124572754,-5.078998565673828
1712834738208682000,11.811681884765624,-6.944820880889893,-2.4394469261169434,1.638497233390808
1712834738228682000,11.831681884765626,-5.9109649658203125,-4.129011154174805,3.439859628677368
1712834738248682000,11.851681884765625,-5.022339344024658,-6.279285430908203,0.48375964164733887
1712834738268682000,11.871681884765625,-5.888819217681885,-6.162788391113281,-1.1561005115509033
1712834738288682200,11.89168212890625,-6.171525478363037,-6.199215888977051,-3.144397258758545
1712834738308682200,11.91168212890625,-5.921020984649658,-6.360330581665039,-2.9168648719787598
1712834738328682200,11.93168212890625,-6.030332565307617,-6.168602466583252,-5.654273509979248
1712834738348682200,11.95168212890625,-5.69350004196167,-6.466382026672363,-5.714491844177246
1712834738368682200,11.97168212890625,-6.81541633605957,1.049485206604004,-2.613797903060913
1712834738388682000,11.991681884765624,-6.48991060256958,0.7130146026611328,-3.071815252304077
1712834738408682000,12.011681884765625,-8.346404075622559,0.8383064270019531,6.9220194816589355
1712834738428682200,12.03168212890625,-6.26058292388916,2.549579620361328,9.118712425231934
1712834738448682200,12.05168212890625,-3.892332077026367,10.927064895629883,8.102798461914062
1712834738468682200,12.07168212890625,-3.500596523284912,10.771286964416504,8.212355613708496
1712834738488682200,12.09168212890625,-3.3579461574554443,4.693586349487305,1.263993740081787
1712834738508682200,12.11168212890625,17.551572799682617,3.0524349212646484,10.708637237548828
1712834738528682000,12.131681884765625,8.310372352600098,8.437498092651367,28.136899948120117
1712834738548682000,12.151681884765624,8.366559982299805,8.40168285369873,27.927614212036133
1712834738568682000,12.171681884765626,-3.7692291736602783,11.76816463470459,-3.7942469120025635
1712834738588682000,12.191681884765625,0.46768999099731445,6.72535514831543,-3.1111092567443848
1712834738608682000,12.211681884765625,-0.14183402061462402,3.957097053527832,0.33885911107063293
1712834738628682000,12.231681884765624,-0.2866830825805664,4.019501686096191,0.43723031878471375
1712834738648682000,12.251681884765626,1.5657916069030762,2.428584098815918,-0.0138167142868042
1712834738668682000,12.271681884765625,2.035374164581299,-6.1863861083984375,-12.352540969848633
1712834738688682000,12.291681884765625,-2.090959072113037,-8.42429256439209,-17.857433319091797
1712834738708682000,12.311681884765624,-5.915799617767334,-3.520941734313965,-13.368246078491211
1712834738728682000,12.331681884765626,-7.0469183921813965,-2.3097543716430664,-6.167224407196045
1712834738748682000,12.351681884765625,-4.952260971069336,-4.287873268127441,-1.5025804042816162
1712834738768682000,12.371681884765625,-3.8292346000671387,-4.891610145568848,0.7731683254241943
1712834738788682200,12.39168212890625,-4.026513576507568,-5.3795294761657715,-0.2350919246673584
1712834738808682200,12.41168212890625,-4.015598773956299,-5.3407721519470215,-0.12311649322509766
1712834738828682200,12.43168212890625,-5.86257266998291,-3.734449863433838,2.03651762008667
1712834738848682200,12.45168212890625,-5.220884323120117,-1.9277372360229492,2.8495898246765137
1712834738868682200,12.47168212890625,-5.159368515014648,-2.0283288955688477,2.6927618980407715
1712834738888682000,12.491681884765624,-8.107671737670898,-1.3029942512512207,2.963899850845337
1712834738908682000,12.511681884765625,-8.500570297241211,-2.414930820465088,11.342423439025879
1712834738928682200,12.53168212890625,-6.382046699523926,-2.5359621047973633,9.99323558807373
1712834738948682200,12.55168212890625,-6.227416038513184,1.1032180786132812,5.607878684997559
1712834738968682200,12.57168212890625,-5.783210754394531,0.8981790542602539,5.355714321136475
1712834738988682200,12.59168212890625,2.4682679176330566,2.151249885559082,-0.3874511122703552
1712834739008682200,12.61168212890625,20.20618438720703,0.9377040863037109,10.201869010925293
1712834739028682000,12.631681884765625,12.345829010009766,1.5774335861206055,29.2479305267334
1712834739048682000,12.651681884765624,7.736712455749512,11.887472152709961,29.177488327026367
1712834739068682000,12.671681884765626,0.9972376823425293,17.178054809570312,10.255754470825195
1712834739088682000,12.691681884765625,1.0165526866912842,13.574749946594238,-3.3235557079315186
1712834739108682000,12.711681884765625,0.8035554885864258,13.662677764892578,-3.2484865188598633
1712834739128682000,12.731681884765624,-0.20180797576904297,4.1857709884643555,-2.9194014072418213
1712834739148682000,12.751681884765626,3.412808895111084,3.4995460510253906,1.5159997940063477
1712834739168682000,12.771681884765625,3.5278944969177246,1.9859180450439453,1.069563865661621
1712834739188682000,12.791681884765625,-1.3857123851776123,-2.715824604034424,-4.696927070617676
1712834739208682000,12.811681884765624,-3.8732166290283203,-4.253406524658203,-9.496553421020508
1712834739228682000,12.831681884765626,-5.41975736618042,-2.584749698638916,-7.305398941040039
1712834739248682000,12.851681884765625,-5.590127944946289,-2.4912710189819336,-3.6912999153137207
1712834739268682000,12.871681884765625,-5.756928443908691,-2.2705483436584473,-3.3959908485412598
1712834739288682200,12.89168212890625,-4.911948204040527,-4.621081829071045,-0.02974390983581543
1712834739308682200,12.91168212890625,-6.039779186248779,-5.776071548461914,0.2352309226989746
1712834739328682200,12.93168212890625,-5.982524871826172,-5.716713905334473,0.487781286239624
1712834739348682200,12.95168212890625,-5.1575398445129395,-6.904495716094971,-1.0506975650787354
1712834739368682200,12.97168212890625,-3.406020164489746,-6.824178695678711,-3.1190671920776367
1712834739388682000,12.991681884765624,-3.7193212509155273,-6.394121170043945,-3.206561803817749
1712834739408682000,13.011681884765625,-4.899355411529541,-5.194700241088867,-2.398635149002075
1712834739428682200,13.03168212890625,-4.772802829742432,-5.454328536987305,-2.790386438369751
1712834739448682200,13.05168212890625,-8.434553146362305,-1.1236276626586914,0.8085278272628784
1712834739468682200,13.07168212890625,-9.698420524597168,-0.9681692123413086,4.241957664489746
1712834739488682200,13.09168212890625,-9.383724212646484,-0.8829832077026367,8.16452407836914
1712834739508682200,13.11168212890625,-7.87654972076416,2.8605194091796875,10.431958198547363
1712834739528682000,13.131681884765625,-5.895828723907471,11.871328353881836,10.97079849243164
1712834739548682000,13.151681884765624,-5.536133766174316,11.721843719482422,11.095812797546387
1712834739568682000,13.171681884765626,0.1307086944580078,2.539944648742676,1.8999440670013428
1712834739588682000,13.191681884765625,15.372507095336914,2.025022506713867,6.67794942855835
1712834739608682000,13.211681884765625,14.932989120483398,1.8214902877807617,24.690584182739258
1712834739628682000,13.231681884765624,12.38336181640625,6.039538383483887,29.665531158447266
1712834739648682000,13.251681884765626,2.679849624633789,13.847357749938965,3.0090715885162354
1712834739668682000,13.271681884765625,1.7185778617858887,11.360214233398438,-6.953638553619385
1712834739688682000,13.291681884765625,1.4578981399536133,11.503189086914062,-6.87464714050293
1712834739708682000,13.311681884765624,8.131901741027832,4.338922500610352,-2.5568528175354004
1712834739728682000,13.331681884765626,6.7067389488220215,2.3507137298583984,3.4099507331848145
1712834739748682000,13.351681884765625,-0.37148571014404297,0.3853311538696289,-0.5234910249710083
1712834739768682000,13.371681884765625,-2.8169145584106445,-0.7397780418395996,-7.090393543243408
1712834739788682200,13.39168212890625,-4.941372871398926,-3.0533242225646973,-9.362920761108398
1712834739808682200,13.41168212890625,-5.188995361328125,-2.400886058807373,-5.280343055725098
1712834739828682200,13.43168212890625,-6.057688236236572,-1.1333332061767578,-1.2624311447143555
1712834739848682200,13.45168212890625,-6.7138895988464355,-1.9422760009765625,0.2061150074005127
1712834739868682200,13.47168212890625,-5.908199310302734,-4.481019020080566,-0.9604017734527588
1712834739888682000,13.491681884765624,-5.844551086425781,-4.317636489868164,-0.5089724063873291
1712834739908682000,13.511681884765625,-5.714534759521484,-5.4426188468933105,-0.6893882751464844
1712834739928682200,13.53168212890625,-5.141089916229248,-4.654837131500244,-2.396930694580078
1712834739948682200,13.55168212890625,-5.3295698165893555,-4.996723651885986,-4.546328067779541
1712834739968682200,13.57168212890625,-4.838761329650879,-5.21898889541626,-6.063935279846191
1712834739988682200,13.59168212890625,-5.553073406219482,-2.569911479949951,-5.688431262969971
1712834740008682200,13.61168212890625,-6.968653678894043,-0.2059011459350586,-3.1780734062194824
1712834740028682000,13.631681884765625,-7.375296592712402,0.8712730407714844,3.875229835510254
1712834740048682000,13.651681884765624,-7.3076958656311035,1.0037989616394043,8.496009826660156
1712834740068682000,13.671681884765626,-9.547174453735352,-0.5707063674926758,9.881170272827148
1712834740088682000,13.691681884765625,-9.946956634521484,-0.6667666435241699,12.21535587310791
1712834740108682000,13.711681884765625,-9.863042831420898,-1.0569424629211426,11.556793212890625
1712834740128682000,13.731681884765624,-9.708187103271484,-0.055999755859375,11.380359649658203
1712834740148682000,13.751681884765626,-7.73759651184082,2.57659912109375,14.467090606689453
1712834740168682000,13.771681884765625,-3.8678927421569824,8.294191360473633,12.315914154052734
1712834740188682000,13.791681884765625,4.235405445098877,5.445816993713379,0.1428607702255249
1712834740208682000,13.811681884765624,4.257055282592773,5.431668281555176,0.11966955661773682
1712834740228682000,13.831681884765626,14.76304817199707,6.5864667892456055,35.722320556640625
1712834740248682000,13.851681884765625,7.966867446899414,13.899293899536133,28.064285278320312
1712834740268682000,13.871681884765625,-1.0866625308990479,21.158945083618164,10.799104690551758
1712834740288682200,13.89168212890625,-0.8633792400360107,21.122005462646484,11.046303749084473
1712834740308682200,13.91168212890625,-1.740883231163025,7.533413887023926,-11.047282218933105
1712834740328682200,13.93168212890625,2.6851894855499268,2.4542369842529297,-7.431388854980469
1712834740348682200,13.95168212890625,2.402754783630371,2.5726747512817383,-7.425755023956299
1712834740368682200,13.97168212890625,3.600539207458496,5.325616836547852,2.7817976474761963
1712834740388682000,13.991681884765624,1.0613713264465332,-1.7388391494750977,-2.9320616722106934
1712834740408682000,14.011681884765625,-2.418491840362549,-5.722198963165283,-8.116275787353516
1712834740428682200,14.03168212890625,-4.998683929443359,-3.62509822845459,-7.6440958976745605
1712834740448682200,14.05168212890625,-6.358494758605957,-2.646409034729004,-4.2103729248046875
1712834740468682200,14.07168212890625,-6.161755561828613,-4.1029582023620605,-2.4919590950012207
1712834740488682200,14.09168212890625,-6.240670680999756,-3.8615355491638184,-2.1502633094787598
1712834740508682200,14.11168212890625,-5.1682868003845215,-4.844089508056641,-0.39287757873535156
1712834740528682000,14.131681884765625,-4.403746128082275,-5.397732734680176,-0.4623551368713379
1712834740548682000,14.151681884765624,-4.1034088134765625,-4.89501953125,-1.375257968902588
1712834740568682000,14.171681884765626,-3.942978858947754,-4.796902656555176,-1.0982422828674316
1712834740588682000,14.191681884765625,-4.546367168426514,-4.046922206878662,-2.3354921340942383
1712834740608682000,14.211681884765625,-4.026965618133545,-4.332942008972168,1.2199335098266602
1712834740628682000,14.231681884765624,-3.2979929447174072,-2.892242193222046,2.742732524871826
1712834740648682000,14.251681884765626,-6.244073867797852,-1.4937219619750977,3.101851463317871
1712834740668682000,14.271681884765625,-9.111284255981445,-0.6568207740783691,4.855642795562744
1712834740688682000,14.291681884765625,-8.510664939880371,0.5539331436157227,9.68242073059082
1712834740708682000,14.311681884765624,-7.882011890411377,-0.8407149314880371,11.105789184570312
1712834740728682000,14.331681884765626,-7.722988605499268,-1.204747200012207,10.449508666992188
1712834740748682000,14.351681884765625,-8.381674766540527,3.476085662841797,9.228343963623047
1712834740768682000,14.371681884765625,-6.143097877502441,15.397220611572266,9.811821937561035
1712834740788682200,14.39168212890625,-2.7788240909576416,5.001380920410156,-0.920486569404602
1712834740808682200,14.41168212890625,-2.581052780151367,4.933171272277832,-0.8317772150039673
1712834740828682200,14.43168212890625,14.454097747802734,5.621549606323242,3.597303867340088
1712834740848682200,14.45168212890625,11.199151039123535,6.6067304611206055,34.810462951660156
1712834740868682200,14.47168212890625,3.085416555404663,13.785775184631348,19.258140563964844
1712834740888682000,14.491681884765624,-6.260690689086914,17.288570404052734,3.1546919345855713
1712834740908682000,14.511681884765625,-5.997583389282227,9.984824180603027,-7.778201580047607
1712834740928682200,14.53168212890625,0.6306471824645996,6.172821998596191,-4.668524742126465
1712834740948682200,14.55168212890625,2.55819034576416,2.7783288955688477,-2.3575544357299805
1712834740968682200,14.57168212890625,2.348789691925049,2.6640825271606445,1.1442971229553223
1712834740988682200,14.59168212890625,2.0859522819519043,2.8379831314086914,1.3464887142181396
1712834741008682200,14.61168212890625,2.8000197410583496,2.496401786804199,0.823411226272583
1712834741028682000,14.631681884765625,0.4080057144165039,-1.8404579162597656,-5.917688369750977
1712834741048682000,14.651681884765624,-2.9150872230529785,-3.1022491455078125,-5.655930519104004
1712834741068682000,14.671681884765626,-5.234260082244873,-0.8916225433349609,-0.47321653366088867
1712834741088682000,14.691681884765625,-5.445487976074219,-2.8990607261657715,1.4006142616271973
1712834741108682000,14.711681884765625,-3.1333770751953125,-2.8185343742370605,2.7739369869232178
1712834741128682000,14.731681884765624,-3.2270421981811523,-2.709719657897949,2.85526967048645
1712834741148682000,14.751681884765626,-2.6619904041290283,-4.082996368408203,0.17899775505065918
1712834741168682000,14.771681884765625,-3.4477057456970215,-6.302423000335693,-2.2527570724487305
1712834741188682000,14.791681884765625,-3.4654951095581055,-6.273934841156006,-2.226149082183838
1712834741208682000,14.811681884765624,-3.736593246459961,-8.460392951965332,-2.562793016433716
1712834741228682000,14.831681884765626,-5.2963056564331055,-4.98652982711792,-1.8055741786956787
1712834741248682000,14.851681884765625,-5.182849884033203,-5.227688312530518,-2.139955520629883
1712834741268682000,14.871681884765625,-6.407833576202393,-0.677093505859375,6.962610244750977
1712834741288682200,14.89168212890625,-6.38540506362915,-0.8871431350708008,6.369511604309082
1712834741308682200,14.91168212890625,-4.3988752365112305,-4.78939151763916,7.173940181732178
1712834741328682200,14.93168212890625,-7.799690246582031,-0.13018417358398438,6.086377143859863
1712834741348682200,14.95168212890625,-7.391990661621094,-0.38466739654541016,5.752143383026123
1712834741368682200,14.97168212890625,-8.287111282348633,9.152727127075195,4.279471397399902
1712834741388682000,14.991681884765624,0.013847589492797852,-0.02754974365234375,0.20783913135528564
1712834741408682000,15.011681884765625,13.36672592163086,5.094034194946289,4.294827461242676
1712834741428682200,15.03168212890625,16.750879287719727,3.3731565475463867,20.561126708984375
1712834741448682200,15.05168212890625,9.952136039733887,6.267867088317871,38.60776138305664
1712834741468682200,15.07168212890625,4.899806976318359,13.07931137084961,22.15441131591797
1712834741488682200,15.09168212890625,0.15288257598876953,19.1695499420166,6.877854347229004
1712834741508682200,15.11168212890625,-2.9456419944763184,13.067977905273438,-6.559918403625488
1712834741528682000,15.131681884765625,-3.0881552696228027,13.14437198638916,-6.466397762298584
1712834741548682000,15.151681884765624,-5.741006374359131,5.877066612243652,-6.386281490325928
1712834741568682000,15.171681884765626,2.2890734672546387,4.605101585388184,-2.5676324367523193
1712834741588682000,15.191681884765625,0.9237160682678223,-0.8924999237060547,-2.637359619140625
1712834741608682000,15.211681884765625,0.6260337829589844,-0.5664525032043457,-2.09159255027771
1712834741628682000,15.231681884765624,-4.002782344818115,-3.1051745414733887,-12.1446533203125
1712834741648682000,15.251681884765626,-4.03893518447876,-2.8786239624023438,-11.657027244567871
1712834741668682000,15.271681884765625,-4.005852699279785,-2.335418701171875,-0.31136107444763184
1712834741688682000,15.291681884765625,-4.128116607666016,-2.0998129844665527,-0.05279684066772461
1712834741708682000,15.311681884765624,-5.365217685699463,-3.115961790084839,2.2795181274414062
1712834741728682000,15.331681884765626,-5.379994869232178,-2.9176738262176514,2.5615415573120117
1712834741748682000,15.351681884765625,-5.673786640167236,-5.340939044952393,1.387718677520752
1712834741768682000,15.371681884765625,-5.477057933807373,-5.22117805480957,1.7565603256225586
1712834741788682200,15.39168212890625,-4.725565433502197,-5.736267566680908,-2.2679553031921387
1712834741808682200,15.41168212890625,-4.495091438293457,-5.70443058013916,-2.02639102935791
1712834741828682200,15.43168212890625,-5.965764045715332,-3.8666162490844727,-1.8917198181152344
1712834741848682200,15.45168212890625,-6.770664215087891,-0.9198513031005859,3.310314655303955
1712834741868682200,15.47168212890625,-6.449710845947266,0.7153501510620117,8.647830963134766
1712834741888682000,15.491681884765624,-6.808836936950684,-1.3632092475891113,10.426639556884766
1712834741908682000,15.511681884765625,-6.921202659606934,-1.6358933448791504,9.870599746704102
1712834741928682200,15.53168212890625,-5.9683966636657715,-1.0001988410949707,12.038579940795898
1712834741948682200,15.55168212890625,-5.733625888824463,-1.391068458557129,11.501517295837402
1712834741968682200,15.57168212890625,-5.5659027099609375,6.409577369689941,11.111681938171387
1712834741988682200,15.59168212890625,-3.851609945297241,11.90227222442627,5.747879981994629
1712834742008682200,15.61168212890625,2.616278648376465,3.080535888671875,-3.2347917556762695
1712834742028681700,15.631681640625,8.331860542297363,5.588968276977539,-0.29645490646362305
1712834742048682000,15.651681884765624,8.31032943725586,5.606829643249512,-0.26244211196899414
1712834742068681700,15.671681640625,15.458171844482422,5.2453718185424805,10.889825820922852
1712834742088682000,15.691681884765625,7.745231628417969,11.2822265625,29.539554595947266
1712834742108681700,15.711681640625,1.9185740947723389,18.318557739257812,12.734041213989258
1712834742128682000,15.731681884765624,-4.746988773345947,15.991743087768555,-4.947145938873291
1712834742148681700,15.751681640625,-2.7684760093688965,6.2719926834106445,-12.287339210510254
1712834742168682000,15.771681884765625,-3.1570160388946533,2.151534080505371,-7.309581756591797
1712834742188681700,15.791681640625,5.165275573730469,4.370399475097656,-1.3217768669128418
1712834742208682000,15.811681884765624,3.574545383453369,1.1548833847045898,1.8977748155593872
1712834742228681700,15.831681640625,-0.6376821994781494,-4.268623352050781,-4.287944793701172
1712834742248682000,15.851681884765625,-3.660310745239258,-5.311470031738281,-8.631843566894531
1712834742268681700,15.871681640625,-6.816290855407715,-2.7194137573242188,-6.2002716064453125
1712834742288682200,15.89168212890625,-6.078925609588623,-1.2653636932373047,-1.3963828086853027
1712834742308682200,15.91168212890625,-6.179356575012207,-1.1061654090881348,-1.2267775535583496
1712834742328682200,15.93168212890625,-4.642314910888672,-2.2149558067321777,3.105903148651123
1712834742348682200,15.95168212890625,-3.0382089614868164,-5.594761371612549,1.145606517791748
1712834742368682200,15.97168212890625,-2.967371940612793,-5.509671688079834,1.344222068786621
1712834742388681700,15.991681640625,-5.021945953369141,-5.749642372131348,-0.5131921768188477
1712834742408681700,16.011681640625,-3.7987077236175537,-5.625181674957275,-0.6794548034667969
1712834742428682200,16.03168212890625,-3.694340467453003,-5.699337959289551,-0.6886081695556641
1712834742448682200,16.05168212890625,-6.472336292266846,-1.9935522079467773,1.340796709060669
1712834742468682200,16.07168212890625,-5.216612815856934,-1.934302806854248,4.351296424865723
1712834742488682200,16.09168212890625,-5.674253940582275,-4.271779537200928,5.2349348068237305
1712834742508682200,16.11168212890625,-9.065465927124023,-2.5921878814697266,8.584416389465332
1712834742528681700,16.131681640625,-6.895279884338379,0.6288719177246094,12.772054672241211
1712834742548681700,16.151681640625,-6.64546012878418,0.34142494201660156,12.271005630493164
1712834742568681700,16.171681640625,-5.682649612426758,11.466071128845215,5.695215702056885
1712834742588681700,16.191681640625,-2.3451948165893555,4.2609148025512695,0.2801170349121094
1712834742608681700,16.211681640625,7.9764604568481445,3.764681816101074,4.345330238342285
1712834742628681700,16.231681640625,16.90085792541504,2.3010435104370117,18.12977409362793
1712834742648681700,16.251681640625,14.745035171508789,6.474183082580566,39.96982955932617
1712834742668681700,16.271681640625,6.551287651062012,14.720409393310547,26.97905731201172
1712834742688681700,16.291681640625,6.663355827331543,14.682853698730469,27.02181625366211
1712834742708681700,16.311681640625,-6.163852214813232,12.977788925170898,-12.006246566772461
1712834742728681700,16.331681640625,-7.389583587646484,1.9586372375488281,-13.96445083618164
1712834742748681700,16.351681640625,1.733130931854248,0.18356037139892578,-8.685059547424316
1712834742768681700,16.371681640625,5.0876240730285645,1.9895687103271484,0.1683499813079834
1712834742788682200,16.39168212890625,1.7428884506225586,0.16792583465576172,1.5317622423171997
1712834742808682200,16.41168212890625,-1.2679576873779297,-2.7223591804504395,-4.321521759033203
1712834742828682200,16.43168212890625,-4.201583385467529,-4.025996208190918,-6.412817001342773
1712834742848682200,16.45168212890625,-4.1658477783203125,-3.850386381149292,-6.010265350341797
1712834742868682200,16.47168212890625,-4.776298522949219,-3.6846764087677,-3.733121395111084
1712834742888681700,16.491681640625,-3.922281265258789,-2.2742204666137695,2.2110612392425537
1712834742908681700,16.511681640625,-4.083125114440918,-3.2515339851379395,0.41129398345947266
1712834742928682200,16.53168212890625,-4.038687705993652,-3.8614070415496826,-0.5933632850646973
1712834742948682200,16.55168212890625,-3.9863975048065186,-3.7969939708709717,-0.45209789276123047
1712834742968682200,16.57168212890625,-1.8094539642333984,-5.388887405395508,-0.5011625289916992
1712834742988682200,16.59168212890625,-3.2066478729248047,-4.963105201721191,0.2341628074645996
1712834743008682200,16.61168212890625,-3.186458110809326,-5.066150665283203,0.11070537567138672
1712834743028681700,16.631681640625,-3.634855270385742,-3.296205520629883,1.3879003524780273
1712834743048681700,16.651681640625,-7.061857223510742,-1.0110764503479004,5.240082263946533
1712834743068681700,16.671681640625,-7.991920471191406,-1.5178532600402832,8.910821914672852
1712834743088681700,16.691681640625,-7.219854831695557,-1.5625548362731934,11.560603141784668
1712834743108681700,16.711681640625,-7.735476493835449,0.5976829528808594,12.611368179321289
1712834743128681700,16.731681640625,-4.389019012451172,6.476157188415527,9.907272338867188
1712834743148681700,16.751681640625,-2.7318778038024902,4.313499450683594,0.52681565284729
1712834743168681700,16.771681640625,2.4081685543060303,0.23038101196289062,-0.3955596685409546
1712834743188681700,16.791681640625,13.190705299377441,0.9893484115600586,14.368770599365234
1712834743208681700,16.811681640625,12.020275115966797,3.258915901184082,24.944639205932617
1712834743228681700,16.831681640625,11.22264289855957,12.663493156433105,22.932161331176758
1712834743248681700,16.851681640625,3.6550068855285645,16.224308013916016,9.338143348693848
1712834743268681700,16.871681640625,0.5573227405548096,13.289388656616211,-4.500941753387451
1712834743288682200,16.89168212890625,1.819690227508545,7.834830284118652,-9.570446014404297
1712834743308682200,16.91168212890625,-1.8472304344177246,2.682988166809082,-3.3403749465942383
1712834743328682200,16.93168212890625,11.22115707397461,4.080868721008301,1.0293328762054443
1712834743348682200,16.95168212890625,3.7999696731567383,0.48950958251953125,6.026398658752441
1712834743368682200,16.97168212890625,0.07819795608520508,-0.13086700439453125,-2.157986640930176
1712834743388681700,16.991681640625,-0.11774539947509766,0.06448745727539062,-2.005291223526001
1712834743408681700,17.011681640625,-5.56664514541626,-1.3386549949645996,-7.59804630279541
1712834743428682200,17.03168212890625,-5.839534282684326,-2.225770950317383,0.21025538444519043
1712834743448682200,17.05168212890625,-5.035155296325684,-1.7222638130187988,1.1700851917266846
1712834743468682200,17.07168212890625,-5.787169456481934,-3.702932119369507,-0.5313329696655273
1712834743488682200,17.09168212890625,-5.871492862701416,-5.666092395782471,-2.082183837890625
1712834743508682200,17.11168212890625,-5.664011478424072,-5.505987644195557,-1.6324853897094727
1712834743528681700,17.131681640625,-4.646468639373779,-5.055479526519775,-2.82949161529541
1712834743548681700,17.151681640625,-4.306136608123779,-4.91611909866333,-2.3967509269714355
1712834743568681700,17.171681640625,-4.606563091278076,-4.64495849609375,-9.115816116333008
1712834743588681700,17.191681640625,-8.441606521606445,-0.8826231956481934,-5.331024169921875
1712834743608681700,17.211681640625,-10.14937686920166,3.8400425910949707,5.617544651031494
1712834743628681700,17.231681640625,-10.632603645324707,3.7000460624694824,5.069324016571045
1712834743648681700,17.251681640625,-7.534120559692383,-1.9767231941223145,17.120044708251953
1712834743668681700,17.271681640625,-7.38870906829834,-3.472752332687378,14.391133308410645
1712834743688681700,17.291681640625,-7.320113658905029,-3.8415539264678955,13.761449813842773
1712834743708681700,17.311681640625,-9.313072204589844,-1.531813621520996,12.0614013671875
1712834743728681700,17.331681640625,-7.153830051422119,3.5162649154663086,13.870317459106445
1712834743748681700,17.351681640625,-0.7950501441955566,4.058236122131348,0.7054818868637085
1712834743768681700,17.371681640625,7.8707380294799805,4.6061296463012695,4.249736785888672
1712834743788682200,17.39168212890625,7.922090530395508,4.599574089050293,4.311342716217041
1712834743808682200,17.41168212890625,12.188732147216797,5.637297630310059,27.59540557861328
1712834743828682200,17.43168212890625,6.5187296867370605,14.763154029846191,25.327245712280273
1712834743848682200,17.45168212890625,-1.2675237655639648,18.801372528076172,10.325257301330566
1712834743868682200,17.47168212890625,-3.8985819816589355,14.927460670471191,-5.02298641204834
1712834743888681700,17.491681640625,-7.692482948303223,6.746975898742676,-9.308832168579102
1712834743908681700,17.511681640625,3.9440319538116455,4.269379615783691,-4.2779459953308105
1712834743928682200,17.53168212890625,10.095193862915039,3.7810258865356445,0.3766169548034668
1712834743948682200,17.55168212890625,3.6445415019989014,-1.6477317810058594,-2.3844759464263916
1712834743968682200,17.57168212890625,-1.4488434791564941,-3.699003219604492,-7.7009687423706055
1712834743988682200,17.59168212890625,-5.312248229980469,-3.6934661865234375,-8.986649513244629
1712834744008682200,17.61168212890625,-5.434518814086914,-3.5810065269470215,-8.891504287719727
1712834744028681700,17.631681640625,-5.789804935455322,-1.4731383323669434,-3.5061116218566895
1712834744048681700,17.651681640625,-4.279415130615234,-3.619184970855713,1.4969279766082764
1712834744068681700,17.671681640625,-4.743177890777588,-4.907440185546875,1.3873872756958008
1712834744088681700,17.691681640625,-4.66427755355835,-4.739368915557861,1.6987643241882324
1712834744108681700,17.711681640625,-5.007986068725586,-6.37550687789917,-1.509676456451416
1712834744128681700,17.731681640625,-4.445095539093018,-5.801281452178955,-3.462993621826172
1712834744148681700,17.751681640625,-4.524814128875732,-5.093904495239258,-5.9033708572387695
1712834744168681700,17.771681640625,-4.869668960571289,-2.975311040878296,-4.486085891723633
1712834744188681700,17.791681640625,-7.0309062004089355,1.4480037689208984,1.0236139297485352
1712834744208681700,17.811681640625,-6.920860290527344,3.9792938232421875,7.692349433898926
1712834744228681700,17.831681640625,-5.79593563079834,1.7912487983703613,10.980626106262207
1712834744248681700,17.851681640625,-5.42548942565918,-1.1422204971313477,12.415249824523926
1712834744268681700,17.871681640625,-8.546770095825195,-1.0609145164489746,10.770673751831055
1712834744288682200,17.89168212890625,-8.440849304199219,3.4932174682617188,10.930782318115234
1712834744308682200,17.91168212890625,-8.222199440002441,8.203592300415039,11.101226806640625
1712834744328682200,17.93168212890625,-3.2616305351257324,1.4399328231811523,5.386013984680176
1712834744348682200,17.95168212890625,0.1804513931274414,3.5431909561157227,8.403902053833008
1712834744368682200,17.97168212890625,8.94161319732666,6.661677360534668,12.785872459411621
1712834744388681700,17.991681640625,17.478368759155273,6.188071250915527,23.03931999206543
1712834744408681700,18.011681640625,11.964841842651367,10.84233283996582,22.869443893432617
1712834744428682200,18.03168212890625,2.6549274921417236,16.56303596496582,10.40561294555664
1712834744448682200,18.05168212890625,-2.4804115295410156,14.881831169128418,-4.132746696472168
1712834744468682200,18.07168212890625,-0.7973010540008545,6.92396354675293,-13.290769577026367
1712834744488682200,18.09168212890625,-2.337460517883301,2.564533233642578,-4.951746940612793
1712834744508682200,18.11168212890625,5.265744209289551,4.242709159851074,0.1566624641418457
1712834744528681700,18.131681640625,4.925098896026611,4.38564395904541,0.12203383445739746
1712834744548681700,18.151681640625,6.444336891174316,4.182229995727539,5.8560404777526855
1712834744568681700,18.171681640625,-3.0934720039367676,-3.8961057662963867,-7.088476181030273
1712834744588681700,18.191681640625,-3.201406717300415,-3.254629611968994,-7.014647960662842
1712834744608681700,18.211681640625,-3.9891810417175293,-2.658022403717041,-3.3394699096679688
1712834744628681700,18.231681640625,-3.1569366455078125,-1.6856980323791504,-1.5515093803405762
1712834744648681700,18.251681640625,-4.502028465270996,-1.436739444732666,1.3297202587127686
1712834744668681700,18.271681640625,-4.882588863372803,-2.4341821670532227,2.3637962341308594
1712834744688681700,18.291681640625,-4.893899917602539,-2.2635650634765625,2.5649638175964355
1712834744708681700,18.311681640625,-3.704932689666748,-3.8663570880889893,2.866575241088867
1712834744728681700,18.331681640625,-3.7532684803009033,-2.9506611824035645,1.7031664848327637
1712834744748681700,18.351681640625,-3.6106221675872803,-2.900726795196533,1.860443115234375
1712834744768681700,18.371681640625,-3.8946738243103027,-2.486128330230713,-0.6328206062316895
1712834744788682200,18.39168212890625,-3.66652512550354,-1.7844324111938477,1.8679847717285156
1712834744808682000,18.411681884765624,-2.514718532562256,-2.730318069458008,4.283585548400879
1712834744828682200,18.43168212890625,-3.919067144393921,-1.6568584442138672,6.1266770362854
1712834744848682000,18.451681884765627,-4.057262897491455,-1.9446702003479004,5.597446441650391
1712834744868682200,18.47168212890625,-5.043740272521973,-2.374708652496338,6.601325511932373
1712834744888681700,18.491681640625,-8.023149490356445,2.338181972503662,11.246964454650879
1712834744908681700,18.511681640625,-6.934415817260742,7.256263732910156,11.806106567382812
1712834744928682000,18.531681884765625,-4.311708450317383,5.902021408081055,3.4584240913391113
1712834744948682000,18.551681884765625,2.2506964206695557,1.3343849182128906,0.2762141227722168
1712834744968682000,18.571681884765624,16.752235412597656,3.385173797607422,9.22833251953125
1712834744988682000,18.591681884765624,16.718599319458008,3.408884048461914,9.255156517028809
1712834745008682000,18.611681884765623,10.70431900024414,11.908367156982422,35.521514892578125
1712834745028681700,18.631681640625,1.7606728076934814,20.445905685424805,15.817885398864746
1712834745048681700,18.651681640625,2.041530132293701,20.40904998779297,16.062223434448242
1712834745068681700,18.671681640625,-6.076505661010742,17.608966827392578,-5.046781539916992
1712834745088681700,18.691681640625,1.6743078231811523,3.090717315673828,-3.9569156169891357
1712834745108681700,18.711681640625,2.908241033554077,4.181583404541016,-1.8173332214355469
1712834745128681700,18.731681640625,1.1808860301971436,0.6173334121704102,-3.2681901454925537
1712834745148681700,18.751681640625,-0.0262753963470459,-0.8533635139465332,-4.151800155639648
1712834745168681700,18.771681640625,-0.6780343055725098,-3.121804714202881,-5.998333930969238
1712834745188681700,18.791681640625,-3.0960450172424316,-4.2977752685546875,-4.652567386627197
1712834745208681700,18.811681640625,-4.908629417419434,-1.1905126571655273,-1.0041861534118652
1712834745228681700,18.831681640625,-5.29948091506958,-1.5503005981445312,0.5602188110351562
1712834745248681700,18.851681640625,-4.063776016235352,-4.183189392089844,1.512402057647705
1712834745268681700,18.871681640625,-2.126587390899658,-6.085235595703125,1.5027625560760498
1712834745288682000,18.891681884765624,-2.1384129524230957,-5.951384544372559,1.6745412349700928
1712834745308682000,18.911681884765624,-4.04638147354126,-6.940661907196045,-1.0715093612670898
1712834745328682000,18.931681884765624,-3.949187755584717,-6.8739519119262695,-0.9119114875793457
1712834745348682000,18.951681884765627,-4.686038970947266,-6.5152587890625,-1.3782954216003418
1712834745368682000,18.971681884765626,-4.472623825073242,-5.839532852172852,-1.11906099319458
1712834745388681700,18.991681640625,-7.804832458496094,-1.0740199089050293,2.1987149715423584
1712834745408681700,19.011681640625,-7.98915958404541,-1.30861234664917,1.7179014682769775
1712834745428682000,19.031681884765625,-5.864378452301025,-2.4646944999694824,7.751375675201416
1712834745448682000,19.051681884765625,-8.24069881439209,-0.12746572494506836,11.026399612426758
1712834745468682000,19.071681884765624,-7.956377983093262,4.977108001708984,12.89225959777832
1712834745488682000,19.091681884765624,-7.836523056030273,10.46257495880127,10.558029174804688
1712834745508682000,19.111681884765623,-7.575545310974121,10.32951545715332,10.530989646911621
1712834745528681700,19.131681640625,8.108254432678223,4.238076210021973,3.5480775833129883
1712834745548681700,19.151681640625,14.968971252441406,5.407326698303223,13.002860069274902
1712834745568681700,19.171681640625,14.932615280151367,5.419412612915039,12.990987777709961
1712834745588681700,19.191681640625,7.714635372161865,10.875288009643555,28.01569175720215
1712834745608681700,19.211681640625,7.852766990661621,10.76868724822998,27.850181579589844
1712834745628681700,19.231681640625,-3.0880696773529053,17.479022979736328,0.4234311580657959
1712834745648681700,19.251681640625,-2.983374834060669,17.46792984008789,0.5260782241821289
1712834745668681700,19.271681640625,-4.212723731994629,2.00454044342041,-3.317487955093384
1712834745688681700,19.291681640625,6.63102912902832,3.4877090454101562,-2.3083364963531494
1712834745708681700,19.311681640625,3.8385541439056396,0.1442880630493164,0.42667055130004883
1712834745728681700,19.331681640625,0.08519458770751953,-2.8856029510498047,-5.080863952636719
1712834745748681700,19.351681640625,-0.11098575592041016,-2.638749122619629,-4.667520999908447
1712834745768681700,19.371681640625,-4.372809410095215,-4.3018798828125,-10.315269470214844
1712834745788682000,19.391681884765624,-6.391261100769043,-5.9891839027404785,-11.740074157714844
1712834745808682000,19.411681884765624,-4.430080890655518,-4.752378463745117,-1.9585251808166504
1712834745828682000,19.431681884765624,-4.4842448234558105,-4.513514995574951,-1.614786148071289
1712834745848682000,19.451681884765627,-3.4381041526794434,-2.3540453910827637,3.1457204818725586
1712834745868682000,19.471681884765626,-2.7139739990234375,-3.8103039264678955,2.0292892456054688
1712834745888681700,19.491681640625,-2.4894089698791504,-3.5772697925567627,2.474803924560547
1712834745908681700,19.511681640625,-3.002878189086914,-3.942885398864746,-0.2126479148864746
1712834745928682000,19.531681884765625,-2.6967945098876953,-3.737003803253174,0.1588888168334961
1712834745948682000,19.551681884765625,-3.4762096405029297,-3.8790786266326904,-2.1213793754577637
1712834745968682000,19.571681884765624,-2.723855495452881,-1.5626983642578125,-2.6994729042053223
1712834745988682000,19.591681884765624,-7.442180633544922,2.121537685394287,-1.530130386352539
1712834746008682000,19.611681884765623,-7.792270183563232,1.9627537727355957,-1.8602466583251953
1712834746028681700,19.631681640625,-5.677528381347656,3.202566146850586,9.943750381469727
1712834746048681700,19.651681640625,-5.786988735198975,0.23591852188110352,10.836225509643555
1712834746068681700,19.671681640625,-8.122628211975098,0.8099322319030762,10.05402660369873
1712834746088681700,19.691681640625,-7.838438034057617,7.274664878845215,9.891200065612793
1712834746108681700,19.711681640625,-3.2922935485839844,3.88649320602417,6.0417094230651855
1712834746128681700,19.731681640625,4.250438213348389,5.357872486114502,7.91273307800293
1712834746148681700,19.751681640625,19.237863540649414,6.277426242828369,17.540897369384766
1712834746168681700,19.771681640625,10.751265525817871,5.071629047393799,34.757232666015625
1712834746188681700,19.791681640625,8.324899673461914,10.643293380737305,27.767131805419922
1712834746208681700,19.811681640625,1.4373493194580078,15.701200485229492,13.364073753356934
1712834746228681700,19.831681640625,-2.163532257080078,16.593097686767578,-1.1939647197723389
1712834746248681700,19.851681640625,-1.83396577835083,16.52619171142578,-1.0197362899780273
1712834746268681500,19.871681396484377,-0.3670821189880371,3.9134931564331055,-4.506141185760498
1712834746288681700,19.891681640625,-0.38761472702026367,3.892416000366211,-4.5662922859191895
1712834746308681700,19.911681640625,5.037854194641113,1.3487834930419922,-0.21059417724609375
1712834746328681700,19.931681640625,1.4227521419525146,-1.932541847229004,-6.489492893218994
1712834746348681700,19.951681640625,1.4147148132324219,-1.7023720741271973,-6.102981090545654
1712834746368682000,19.971681884765626,-3.9003777503967285,-4.023904800415039,-7.096887588500977
1712834746388681700,19.991681640625,-4.015900611877441,-3.8745083808898926,-6.961341381072998
1712834746408681700,20.011681640625,-6.664823532104492,-2.1019186973571777,4.303281307220459
1712834746428681700,20.031681640625,-6.9474687576293945,-1.978689193725586,4.253734111785889
1712834746448681700,20.051681640625,-2.7278494834899902,-5.543179988861084,5.565393447875977
1712834746468681700,20.071681640625,-3.437544345855713,-6.668490409851074,1.95695161819458
1712834746488681700,20.091681640625,-3.2899346351623535,-6.113949775695801,-0.9804863929748535
1712834746508682000,20.111681884765623,-2.6423091888427734,-5.925075054168701,-3.2734103202819824
1712834746528681700,20.131681640625,-2.643064022064209,-6.044706344604492,-4.461477279663086
1712834746548681700,20.151681640625,-2.567678451538086,-6.187025547027588,-4.585289001464844
1712834746568681700,20.171681640625,-6.33634090423584,-3.5981600284576416,-2.3124208450317383
1712834746588681700,20.191681640625,-6.115401268005371,0.1392512321472168,8.53879451751709
1712834746608681700,20.211681640625,-4.939583778381348,-0.9839143753051758,11.113134384155273
1712834746628681700,20.231681640625,-8.183717727661133,-0.27457189559936523,11.618609428405762
1712834746648681700,20.251681640625,-7.787554740905762,4.950410842895508,12.021580696105957
1712834746668681700,20.271681640625,-7.254156112670898,9.112543106079102,5.93634033203125
1712834746688681700,20.291681640625,-0.8721256256103516,0.9645051956176758,-0.21822357177734375
1712834746708681700,20.311681640625,12.100881576538086,5.415153503417969,5.726319789886475
1712834746728681700,20.331681640625,12.069133758544922,5.411484718322754,5.680233478546143
1712834746748682000,20.351681884765625,10.994485855102539,6.00269889831543,38.37462615966797
1712834746768682000,20.371681884765625,5.671377182006836,14.385210990905762,22.2257080078125
1712834746788682000,20.391681884765624,5.944027900695801,14.29123592376709,22.246374130249023
1712834746808649000,20.41164892578125,-5.761663436889648,11.802940368652344,-13.974937438964844
1712834746828615700,20.43161572265625,-5.644919395446777,11.806815147399902,-13.851522445678711
1712834746848582100,20.45158203125,3.7814483642578125,-0.045581817626953125,-5.758949279785156
1712834746868549600,20.471549560546876,0.7825193405151367,0.9636268615722656,-0.0733189582824707
1712834746888516000,20.49151611328125,3.3849689960479736,3.6994667053222656,3.134035110473633
1712834746908482800,20.51148291015625,3.0811235904693604,3.846816062927246,3.2049853801727295
1712834746928449300,20.53144921875,3.5457611083984375,-0.6669530868530273,1.9462851285934448
1712834746948416000,20.551416015625,-3.19551420211792,-5.053974151611328,-7.059928894042969
1712834746968382500,20.571382568359375,-6.125839710235596,-3.7607197761535645,-6.51993465423584
1712834746988349200,20.59134912109375,-5.480704307556152,-3.633756160736084,-3.4736576080322266
1712834747008315600,20.611315673828123,-5.575170516967773,-3.4486918449401855,-3.2329649925231934
1712834747028282400,20.631282470703123,-2.5046844482421875,-4.145308494567871,1.7904841899871826
1712834747048249000,20.6512490234375,-2.1636557579040527,-4.3039679527282715,2.009582281112671
1712834747068215800,20.6712158203125,-2.2022042274475098,-4.203371047973633,2.126995801925659
1712834747088182300,20.691182373046875,-2.935852289199829,-4.782699108123779,1.876598834991455
1712834747108148700,20.711148681640626,-2.9690263271331787,-4.785494804382324,1.8405470848083496
1712834747128115500,20.731115478515626,-5.583589553833008,-4.9353437423706055,0.5179805755615234
1712834747148082400,20.75108251953125,-5.597087860107422,-5.125307083129883,0.1917262077331543
1712834747168049200,20.771049072265626,-6.1409010887146,-3.739029884338379,3.2462143898010254
1712834747188015600,20.791015625,-8.455829620361328,-3.3719372749328613,3.768965721130371
1712834747207982300,20.810982421875,-9.035608291625977,-0.7989063262939453,7.372993469238281
1712834747227949000,20.830948974609374,-6.157317638397217,3.905363082885742,7.490320205688477
1712834747247915800,20.850915771484374,-3.6866884231567383,9.384763717651367,5.2099690437316895
1712834747267882200,20.87088232421875,1.0800659656524658,2.165268898010254,0.9676109552383423
1712834747287849000,20.890848876953125,9.953530311584473,4.086320877075195,7.996528148651123
1712834747307815700,20.910815673828125,9.807071685791016,4.168177604675293,8.078203201293945
1712834747327782400,20.930782470703125,15.89046573638916,4.633457183837891,22.310501098632812
1712834747347748900,20.950748779296877,11.583577156066895,6.483203887939453,38.73407745361328
1712834747367715300,20.97071533203125,8.476016998291016,10.250673294067383,24.050992965698242
1712834747387682000,20.99068212890625,-0.6924448013305664,14.517383575439453,-3.246102809906006
1712834747407681800,21.010681884765624,-2.6014819145202637,8.118814468383789,-8.239850997924805
1712834747427681800,21.030681884765624,-2.7631564140319824,2.632473945617676,-2.643980026245117
1712834747447681800,21.050681884765623,4.874007701873779,2.0414562225341797,5.269766807556152
1712834747467681500,21.070681640625,6.784618854522705,2.8602943420410156,7.906644344329834
1712834747487681500,21.090681640625,-1.5358233451843262,-3.5069475173950195,-1.63681960105896
1712834747507681500,21.110681640625,-3.408937454223633,-5.277105331420898,-10.610884666442871
1712834747527681500,21.130681640625,-6.944374084472656,-3.7661070823669434,-10.29911994934082
1712834747547681500,21.150681640625,-6.717727184295654,-4.2019500732421875,-4.925080299377441
1712834747567681500,21.170681640625,-6.850822448730469,-4.004581451416016,-4.724440574645996
1712834747587648300,21.190648193359376,-5.8508124351501465,-5.618867874145508,-0.26456618309020996
1712834747607615000,21.210614990234376,-4.481637001037598,-6.07892370223999,-0.09816837310791016
1712834747627581400,21.23058154296875,-4.841085433959961,-6.69354248046875,-0.03650045394897461
1712834747647548200,21.250548095703124,-5.462826728820801,-6.972380638122559,0.04709577560424805
1712834747667515000,21.270514892578124,-5.235564231872559,-6.386544704437256,-0.5078039169311523
1712834747687481600,21.290481689453124,-4.968658447265625,-6.407687664031982,-0.2932124137878418
1712834747707448300,21.3104482421875,-5.281832695007324,-4.027890205383301,-0.7970256805419922
1712834747727414800,21.330414794921875,-3.5020644664764404,-3.689382791519165,-1.6086297035217285
1712834747747381200,21.35038134765625,-6.201387405395508,-1.5300922393798828,-4.548440456390381
1712834747767348000,21.370347900390627,-11.242613792419434,5.691018104553223,-2.361776351928711
1712834747787314700,21.390314697265627,-7.371320724487305,4.207418441772461,5.029759407043457
1712834747807281200,21.41028125,-6.730676651000977,4.808243274688721,9.86326789855957
1712834747827247900,21.430247802734375,-5.089306354522705,13.957818031311035,14.998793601989746
1712834747847214600,21.450214599609374,-4.370377063751221,3.8081750869750977,9.543936729431152
1712834747867181600,21.470181640625,0.48838090896606445,4.7940521240234375,12.091410636901855
1712834747887148300,21.490148193359374,10.608357429504395,3.8384056091308594,18.491539001464844
1712834747907115000,21.510114990234374,9.687076568603516,5.495417594909668,29.875717163085938
1712834747927081500,21.53008154296875,9.74386215209961,5.434298515319824,29.803829193115234
1712834747947048200,21.550048095703126,5.364760398864746,9.548955917358398,13.247068405151367
1712834747967015000,21.570014892578126,5.644618034362793,9.504789352416992,13.454607009887695
1712834747986981600,21.589981689453126,1.8486673831939697,12.850746154785156,1.917280673980713
1712834748006948600,21.609948486328125,-1.7205959558486938,10.116697311401367,-8.065373420715332
1712834748026915300,21.629915283203125,1.628133773803711,5.468752861022949,3.754145622253418
1712834748046881800,21.6498818359375,4.644598007202148,7.508318901062012,11.863319396972656
1712834748066848500,21.6698486328125,4.407867431640625,7.611180305480957,11.837065696716309
1712834748086815200,21.689815185546873,-1.6445493698120117,-5.784369468688965,-5.326168060302734
1712834748106782000,21.709781982421877,-1.6241440773010254,-5.608499526977539,-4.9808549880981445
1712834748126748400,21.72974853515625,-8.913253784179688,-2.4039363861083984,-8.594987869262695
1712834748146715100,21.749715087890625,-6.7043375968933105,-4.479611396789551,-3.570683479309082
1712834748166681900,21.769681884765625,-4.190700531005859,-2.769822120666504,4.025996685028076
1712834748186681900,21.789681884765624,-2.137016773223877,-3.9411849975585938,5.815374851226807
1712834748206681900,21.809681884765624,-2.9584743976593018,-5.974879264831543,3.235527992248535
1712834748226681900,21.829681884765623,-4.213760852813721,-6.6275954246521,0.39063405990600586
1712834748246681900,21.849681884765626,-4.073367118835449,-6.613558292388916,0.5432567596435547
1712834748266681900,21.869681884765626,-2.9580864906311035,-4.986630439758301,-1.8708734512329102
1712834748286681900,21.889681884765626,-4.031985282897949,-4.362018585205078,-1.5318903923034668
1712834748306681900,21.909681884765625,-3.645024299621582,-3.5049386024475098,1.448960781097412
1712834748326681900,21.929681884765625,-4.305421352386475,-3.0351810455322266,2.662719249725342
1712834748346681900,21.949681884765624,-5.884525299072266,-2.1722912788391113,5.753095626831055
1712834748366682000,21.96968212890625,-5.928033828735352,-2.4128780364990234,5.19457483291626
1712834748386682000,21.98968212890625,-8.286763191223145,2.124715805053711,10.765893936157227
1712834748406682000,22.00968212890625,-7.825638771057129,10.003030776977539,10.92837905883789
1712834748426682000,22.02968212890625,-7.559985637664795,9.865139961242676,10.881186485290527
1712834748446682000,22.04968212890625,-4.600945949554443,4.669944763183594,5.753276824951172
1712834748466681900,22.069681884765625,16.40582275390625,5.81410026550293,19.156112670898438
1712834748486681900,22.089681884765625,13.821744918823242,4.200568199157715,36.866920471191406
1712834748506682000,22.10968212890625,6.794947624206543,12.008170127868652,24.720075607299805
1712834748526682000,22.12968212890625,7.120728492736816,11.861835479736328,24.639389038085938
1712834748546682000,22.14968212890625,-4.589519500732422,9.99472427368164,-9.886582374572754
1712834748566682000,22.16968212890625,1.638223648071289,3.7259159088134766,-4.648577690124512
1712834748586682000,22.18968212890625,-1.081669807434082,1.519460678100586,-1.246262550354004
1712834748606681900,22.209681884765626,-0.5455939769744873,2.998358726501465,2.0090904235839844
1712834748626681900,22.229681884765625,-0.6841917037963867,3.0547571182250977,2.0439999103546143
1712834748646681900,22.249681884765625,4.35591983795166,-3.332101345062256,-4.655291557312012
1712834748666681900,22.269681884765625,0.22553396224975586,-6.363705635070801,-9.575346946716309
1712834748686681900,22.289681884765624,-3.9391090869903564,-5.922454833984375,-11.622100830078125
1712834748706681900,22.309681884765624,-4.095248222351074,-4.090531349182129,-8.5958251953125
1712834748726681900,22.329681884765623,-3.632035255432129,-3.4126267433166504,-2.792470693588257
1712834748746681900,22.349681884765626,-3.789914846420288,-3.26536226272583,-2.6485891342163086
1712834748766681900,22.369681884765626,-3.5866451263427734,-4.893523693084717,3.58872127532959
1712834748786681900,22.389681884765626,-3.254873275756836,-6.72899866104126,2.692317008972168
1712834748806681900,22.409681884765625,-3.3052496910095215,-6.7058024406433105,2.6838879585266113
1712834748826681900,22.429681884765625,-2.351945400238037,-8.011054992675781,1.6748127937316895
1712834748846681900,22.449681884765624,-6.063702583312988,-4.234609603881836,2.60103440284729
1712834748866682000,22.46968212890625,-6.05580472946167,-4.389366149902344,2.272185802459717
1712834748886682000,22.48968212890625,-7.184590816497803,-1.5166068077087402,5.120744705200195
1712834748906682000,22.50968212890625,-8.257628440856934,1.8577547073364258,7.24202299118042
1712834748926682000,22.52968212890625,-5.486240386962891,9.697700500488281,10.240306854248047
1712834748946682000,22.54968212890625,-1.7528669834136963,5.850910186767578,3.589693784713745
1712834748966681900,22.569681884765625,3.3046181201934814,2.9242191314697266,1.8125455379486084
1712834748986681900,22.589681884765625,9.811588287353516,3.177274703979492,7.61580753326416
1712834749006682000,22.60968212890625,9.382514953613281,1.0423126220703125,32.364627838134766
1712834749026682000,22.62968212890625,9.90668773651123,11.019054412841797,42.53924560546875
1712834749046682000,22.64968212890625,7.995553016662598,9.695438385009766,18.502410888671875
1712834749066682000,22.66968212890625,2.852060556411743,12.520957946777344,3.2677855491638184
1712834749086682000,22.68968212890625,2.991870880126953,12.489777565002441,3.3525376319885254
1712834749106681900,22.709681884765626,-0.049340009689331055,4.804695129394531,-10.122881889343262
1712834749126681900,22.729681884765625,-0.31600451469421387,4.915862083435059,-10.109529495239258
1712834749146681900,22.749681884765625,5.734158515930176,4.852969169616699,6.144158840179443
1712834749166681900,22.769681884765625,3.499671459197998,-2.727962017059326,0.9753918647766113
1712834749186681900,22.789681884765624,0.4644742012023926,-5.287571907043457,-6.127666473388672
1712834749206681900,22.809681884765624,-6.918690204620361,-4.502616882324219,-7.886107444763184
1712834749226681900,22.829681884765623,-8.141889572143555,-0.9943947792053223,-4.437340259552002
1712834749246681900,22.849681884765626,-6.235435962677002,-1.931983470916748,1.0255510807037354
1712834749266681900,22.869681884765626,-6.395484924316406,-1.7543072700500488,1.159726619720459
1712834749286681900,22.889681884765626,-3.065934181213379,-6.59285831451416,1.7880010604858398
1712834749306681900,22.909681884765625,-3.898334503173828,-7.453519344329834,-1.4562387466430664
1712834749326681900,22.929681884765625,-3.7170119285583496,-7.40316915512085,-1.1521906852722168
1712834749346681900,22.949681884765624,-3.7043933868408203,-8.230721473693848,-6.510469913482666
1712834749366682000,22.96968212890625,-5.988346576690674,-7.412635803222656,-3.564058780670166
1712834749386682000,22.98968212890625,-8.674291610717773,-3.423495292663574,2.1110265254974365
1712834749406682000,23.00968212890625,-8.661188125610352,-3.6875510215759277,1.6508204936981201
1712834749426682000,23.02968212890625,-7.685027599334717,-1.6996045112609863,9.387608528137207
1712834749446682000,23.04968212890625,-7.610511302947998,-1.9552063941955566,8.84237003326416
1712834749466681900,23.069681884765625,-7.650186538696289,-0.000186920166015625,10.738914489746094
1712834749486681900,23.089681884765625,-7.020334720611572,14.059955596923828,9.912309646606445
1712834749506682000,23.10968212890625,-2.1576709747314453,5.047141075134277,0.8173395395278931
1712834749526682000,23.12968212890625,-2.002426862716675,5.059726715087891,1.1079214811325073
1712834749546682000,23.14968212890625,13.209795951843262,2.450559616088867,7.192537307739258
1712834749566682000,23.16968212890625,7.921464920043945,7.851650238037109,37.86176300048828
1712834749586682000,23.18968212890625,7.966338157653809,7.730145454406738,37.43460464477539
1712834749606681900,23.209681884765626,11.04122543334961,10.824068069458008,33.55043411254883
1712834749626681900,23.229681884765625,-1.2419536113739014,18.260929107666016,0.11410760879516602
1712834749646681900,23.249681884765625,-6.2238569259643555,10.63004207611084,-11.184061050415039
1712834749666681900,23.269681884765625,0.22074007987976074,2.280430793762207,-8.616009712219238
1712834749686681900,23.289681884765624,-0.11048650741577148,2.3748035430908203,-8.806952476501465
1712834749706681900,23.309681884765624,1.1637353897094727,1.096013069152832,3.2796287536621094
1712834749726681900,23.329681884765623,0.8222565650939941,1.2506065368652344,3.218748092651367
1712834749746681900,23.349681884765626,2.6350650787353516,3.1204652786254883,6.926868438720703
1712834749766681900,23.369681884765626,-4.420593738555908,-5.562101364135742,-7.556095123291016
1712834749786681900,23.389681884765626,-4.411077976226807,-5.424487113952637,-7.029756546020508
1712834749806681900,23.409681884765625,-7.085174083709717,-3.722341537475586,-4.705023288726807
1712834749826681900,23.429681884765625,-3.8821582794189453,-6.483951568603516,-2.585587978363037
1712834749846681900,23.449681884765624,-2.8807990550994873,-8.404877662658691,-1.3347272872924805
1712834749866682000,23.46968212890625,-4.294812202453613,-9.531803131103516,-2.3494486808776855
1712834749886682000,23.48968212890625,-4.5718464851379395,-8.212491989135742,-4.353298187255859
1712834749906682000,23.50968212890625,-4.104184150695801,-7.456741809844971,-5.8515424728393555
1712834749926682000,23.52968212890625,-2.939178228378296,-7.008176326751709,-4.462301731109619
1712834749946682000,23.54968212890625,-6.601737022399902,-4.779448986053467,-1.832160472869873
1712834749966681900,23.569681884765625,-6.431859016418457,-4.970791339874268,-2.026254653930664
1712834749986681900,23.589681884765625,-8.28352165222168,-2.295985698699951,6.9710612297058105
1712834750006682000,23.60968212890625,-8.29668140411377,-2.4833922386169434,6.546411991119385
1712834750026682000,23.62968212890625,-8.759425163269043,0.6385478973388672,14.064955711364746
1712834750046682000,23.64968212890625,-7.397094249725342,13.796439170837402,16.111507415771484
1712834750066682000,23.66968212890625,-2.4861323833465576,5.268306732177734,1.6937482357025146
1712834750086682000,23.68968212890625,-2.3408753871917725,5.299881935119629,1.9243204593658447
1712834750106681900,23.709681884765626,7.0176682472229,6.075565338134766,6.125025749206543
1712834750126681900,23.729681884765625,15.530349731445312,8.35521411895752,39.71330261230469
1712834750146681900,23.749681884765625,10.787168502807617,15.743461608886719,33.967308044433594
1712834750166681900,23.769681884765625,3.34403920173645,21.985456466674805,13.12337875366211
1712834750186681900,23.789681884765624,-4.44788932800293,18.27777862548828,-7.564618110656738
1712834750206681900,23.809681884765624,-2.0334439277648926,6.753040313720703,-12.60234260559082
1712834750226681900,23.829681884765623,0.6471431255340576,2.143345832824707,-5.668154239654541
1712834750246681900,23.849681884765626,0.4724569320678711,2.1530380249023438,-5.799619674682617
1712834750266681900,23.869681884765626,-3.1834604740142822,4.907814025878906,1.1361165046691895
1712834750286681900,23.889681884765626,9.133966445922852,-1.3724379539489746,-0.2841036319732666
1712834750306681900,23.909681884765625,0.2168717384338379,-6.97031307220459,-3.0234525203704834
1712834750326681900,23.929681884765625,-2.0290727615356445,-4.777487754821777,-8.641792297363281
1712834750346681900,23.949681884765624,-1.8929747343063354,-4.584606170654297,-8.129240036010742
1712834750366682000,23.96968212890625,-6.218199253082275,-6.032853126525879,-7.5667524337768555
1712834750386682000,23.98968212890625,-5.7455034255981445,-7.100232124328613,-4.016635417938232
1712834750406682000,24.00968212890625,-6.100776672363281,-6.604435920715332,-0.3927903175354004
1712834750426682000,24.02968212890625,-6.091557502746582,-6.377389430999756,-0.07719039916992188
1712834750446682000,24.04968212890625,-3.637446403503418,-4.569327354431152,2.596952438354492
1712834750466681900,24.069681884765625,-2.3762364387512207,-4.090378284454346,3.1610147953033447
1712834750486681900,24.089681884765625,-1.4814496040344238,-3.8708958625793457,2.137697219848633
1712834750506682000,24.10968212890625,-0.28920578956604004,-4.841248512268066,0.7941498756408691
1712834750526682000,24.12968212890625,-2.177969455718994,-3.840238332748413,0.6816754341125488
1712834750546682000,24.14968212890625,-5.456745147705078,1.0198369026184082,4.375349998474121
1712834750566682000,24.16968212890625,-5.730676651000977,0.8946328163146973,4.134128570556641
1712834750586682000,24.18968212890625,-5.178184986114502,1.7001404762268066,8.421492576599121
1712834750606681900,24.209681884765626,-6.960808753967285,-2.1775035858154297,12.555871963500977
1712834750626681900,24.229681884765625,-6.977813243865967,-2.4936885833740234,12.131695747375488
1712834750646681900,24.249681884765625,-8.89289379119873,-0.16579151153564453,6.212760925292969
1712834750666681900,24.269681884765625,-7.139711380004883,-0.954399585723877,3.2104575634002686
1712834750686681900,24.289681884765624,0.0904381275177002,2.536195755004883,3.785071849822998
1712834750706681900,24.309681884765624,6.431269645690918,5.689352989196777,5.453522205352783
1712834750726681900,24.329681884765623,6.530936241149902,5.659625053405762,5.456448078155518
1712834750746681900,24.349681884765626,13.76059341430664,8.977434158325195,17.51729965209961
1712834750766681900,24.369681884765626,8.609161376953125,8.824662208557129,28.456939697265625
1712834750786681900,24.389681884765626,2.450345039367676,14.5429105758667,20.493770599365234
1712834750806681900,24.409681884765625,3.731156826019287,14.129926681518555,6.666665077209473
1712834750826681900,24.429681884765625,4.626977443695068,11.004292488098145,1.5638866424560547
1712834750846681900,24.449681884765624,2.9879825115203857,8.568904876708984,2.1942343711853027
1712834750866682000,24.46968212890625,2.8564343452453613,8.448691368103027,1.817517638206482
1712834750886682000,24.48968212890625,3.0581116676330566,6.884281158447266,5.171123504638672
1712834750906682000,24.50968212890625,2.4288833141326904,5.261120796203613,5.164182662963867
1712834750926682000,24.52968212890625,-1.3632197380065918,5.045729637145996,4.786699295043945
1712834750946682000,24.54968212890625,-1.1535978317260742,4.309226036071777,2.225271701812744
1712834750966681900,24.569681884765625,2.3566763401031494,3.812361717224121,-2.990886688232422
1712834750986681900,24.589681884765625,2.1198036670684814,3.9030027389526367,-2.793862819671631
1712834751006682000,24.60968212890625,-3.8319458961486816,-4.460986614227295,-9.785959243774414
1712834751026682000,24.62968212890625,-5.586189270019531,-3.0225601196289062,-7.316555023193359
1712834751046682000,24.64968212890625,-4.661490440368652,-2.7152562141418457,-1.4065475463867188
1712834751066682000,24.66968212890625,-2.3941824436187744,-3.862363338470459,1.1774752140045166
1712834751086682000,24.68968212890625,-2.105417490005493,-4.6394171714782715,0.7226462364196777
1712834751106681900,24.709681884765626,-2.4232537746429443,-5.396965980529785,-1.1767292022705078
1712834751126681900,24.729681884765625,-3.139711856842041,-4.4147772789001465,-1.7609782218933105
1712834751146681900,24.749681884765625,-3.540834426879883,-3.694896697998047,-2.466256618499756
1712834751166681900,24.769681884765625,-2.4702515602111816,-4.066208362579346,-3.6102066040039062
1712834751186681900,24.789681884765624,-1.7280857563018799,-4.832343578338623,-3.531529426574707
1712834751206681900,24.809681884765624,-1.3042545318603516,-3.91033673286438,-2.639954090118408
1712834751226681900,24.829681884765623,-1.266002893447876,-2.1499977111816406,-2.5532593727111816
1712834751246681900,24.849681884765626,-1.6612522602081299,-0.5458827018737793,-2.627230644226074
1712834751266681900,24.869681884765626,-2.1060948371887207,0.4266996383666992,-2.9053359031677246
1712834751286681900,24.889681884765626,-1.8276855945587158,1.0852794647216797,-0.4231109619140625
1712834751306681900,24.909681884765625,-3.122797727584839,-0.7095451354980469,1.4203472137451172
1712834751326681900,24.929681884765625,-7.886995315551758,0.03491830825805664,6.229053497314453
1712834751346681900,24.949681884765624,-5.666211128234863,0.802731990814209,11.189684867858887
1712834751366682000,24.96968212890625,-5.974592208862305,-2.422029972076416,11.199121475219727
1712834751386682000,24.98968212890625,-7.688485145568848,-1.4511523246765137,12.116880416870117
1712834751406682000,25.00968212890625,-7.32308292388916,1.6200141906738281,13.770650863647461
1712834751426682000,25.02968212890625,-8.511810302734375,4.824192523956299,9.012333869934082
1712834751446682000,25.04968212890625,-6.838964462280273,2.7261624336242676,-0.14427900314331055
1712834751466681900,25.069681884765625,-1.3214020729064941,2.4061927795410156,1.1816511154174805
1712834751486681900,25.089681884765625,9.308347702026367,7.2994585037231445,5.87426233291626
1712834751506682000,25.10968212890625,11.896795272827148,7.654041767120361,8.627631187438965
1712834751526682000,25.12968212890625,11.35069465637207,10.845320701599121,13.318161964416504
1712834751546682000,25.14968212890625,9.019552230834961,12.595083236694336,20.69797134399414
1712834751566682000,25.16968212890625,9.441825866699219,12.306411743164062,20.42650604248047
1712834751586682000,25.18968212890625,2.7757647037506104,10.263921737670898,13.400571823120117
1712834751606681900,25.209681884765626,0.7517515420913696,12.0186767578125,6.413118839263916
1712834751626681900,25.229681884765625,-1.1257859468460083,10.497058868408203,2.353752613067627
1712834751646681900,25.249681884765625,-1.1479374170303345,5.800101280212402,0.11249923706054688
1712834751666681900,25.269681884765625,-1.2888445854187012,5.68350887298584,-0.13868236541748047
1712834751686681900,25.289681884765624,0.502251386642456,2.9064016342163086,1.3577165603637695
1712834751706681900,25.309681884765624,0.8960001468658447,1.8623180389404297,3.0749926567077637
1712834751726681900,25.329681884765623,0.49442875385284424,-0.6964664459228516,1.3489665985107422
1712834751746681900,25.349681884765626,0.4661462903022766,-0.7210121154785156,1.275745153427124
1712834751766681900,25.369681884765626,-0.27660614252090454,-0.022596359252929688,-1.9877300262451172
1712834751786681900,25.389681884765626,-2.697798013687134,0.3480224609375,-0.07514595985412598
