time,seconds_elapsed,z,y,x
1712834726467914200,0.070914306640625,-0.36850446462631226,-0.12591460347175598,-0.004046982154250145
1712834726489914000,0.0929140625,-0.403323769569397,-0.09598220139741898,0.025274548679590225
1712834726509914000,0.1129140625,-0.4363104999065399,0.013973542489111423,0.045433104038238525
1712834726529914000,0.1329140625,-0.42898011207580566,0.28703030943870544,0.1370628923177719
1712834726549914000,0.1529140625,-0.44852781295776367,0.7042512893676758,0.254349023103714
1712834726569918700,0.172918701171875,-0.5535966157913208,0.7940484881401062,0.15355625748634338
1712834726589918700,0.192918701171875,-0.5181664228439331,0.7024186849594116,0.15905404090881348
1712834726609918700,0.212918701171875,-0.47601673007011414,0.5698609352111816,0.17432567477226257
1712834726629918700,0.232918701171875,-0.37950003147125244,0.5692500472068787,0.1883755773305893
1712834726649918700,0.252918701171875,-0.1944078654050827,0.9101128578186035,0.25129470229148865
1712834726669918700,0.272918701171875,0.0029016099870204926,1.2747994661331177,0.3197115957736969
1712834726689918700,0.292918701171875,0.37858372926712036,1.7854827642440796,0.3911828398704529
1712834726709919700,0.312919677734375,1.1769846677780151,3.3798410892486572,0.33253976702690125
1712834726729919700,0.332919677734375,1.906357765197754,3.9974257946014404,0.4864778220653534
1712834726749919700,0.352919677734375,1.7084373235702515,4.701753616333008,0.5732206702232361
1712834726769919700,0.372919677734375,1.098183035850525,4.664490699768066,0.4608214795589447
1712834726789919700,0.392919677734375,1.4262176752090454,3.688938856124878,0.030772335827350616
1712834726809919700,0.412919677734375,1.856266736984253,2.881985902786255,-0.16775886714458466
1712834726829919700,0.432919677734375,2.1427626609802246,2.734767436981201,-0.13355042040348053
1712834726849919700,0.452919677734375,2.448195219039917,3.057914972305298,-0.13355042040348053
1712834726869919700,0.472919677734375,2.6809349060058594,3.5594353675842285,-0.2575560510158539
1712834726889919700,0.492919677734375,2.8092164993286133,3.943669557571411,-0.3968333303928375
1712834726909919700,0.512919677734375,2.950937271118164,3.8300487995147705,-0.5568800568580627
1712834726929919700,0.532919677734375,3.051119089126587,3.4342081546783447,-0.7083746194839478
1712834726949919700,0.552919677734375,2.9912543296813965,2.893592357635498,-0.8189412355422974
1712834726969919700,0.572919677734375,2.9100093841552734,2.262568473815918,-0.7981718182563782
1712834726989919700,0.592919677734375,2.9637653827667236,1.150182843208313,-0.76762855052948
1712834727009919700,0.612919677734375,3.0547842979431152,0.896062970161438,-0.7780132293701172
1712834727029919700,0.632919677734375,3.0272953510284424,0.8355873227119446,-0.6900486350059509
1712834727049919700,0.652919677734375,2.9265027046203613,0.8117635250091553,-0.5037347674369812
1712834727069920000,0.672919921875,2.8202121257781982,0.4770093858242035,-0.3925572633743286
1712834727089920000,0.692919921875,2.5117251873016357,-0.14301882684230804,-0.3278055489063263
1712834727109920000,0.712919921875,2.046856641769409,-0.4844925105571747,-0.2215150147676468
1712834727129920000,0.732919921875,1.7609717845916748,-0.3769802153110504,-0.11827878654003143
1712834727149920000,0.752919921875,1.5838208198547363,-0.08743008971214294,-0.11094839870929718
1712834727169919700,0.772919677734375,1.2454015016555786,0.13431400060653687,-0.10667234659194946
1712834727189919700,0.792919677734375,0.7872526049613953,0.31757357716560364,-0.1555415689945221
1712834727209920000,0.812919921875,0.3065016269683838,0.6694319248199463,-0.37117698788642883
1712834727229920000,0.832919921875,-0.23839016258716583,0.9785297513008118,-0.5232824683189392
1712834727249920000,0.852919921875,-0.8956811428070068,1.2680798768997192,-0.4988478422164917
1712834727269920000,0.872919921875,-1.4833335876464844,1.6089427471160889,-0.4786892831325531
1712834727289920000,0.892919921875,-1.8431332111358643,1.781206727027893,-0.4237114191055298
1712834727309919700,0.912919677734375,-2.216371774673462,1.8233563899993896,-0.3882812261581421
1712834727329919700,0.932919677734375,-2.590832233428955,1.740278720855713,-0.29481884837150574
1712834727349919700,0.952919677734375,-2.9097039699554443,1.5472452640533447,-0.07857254147529602
1712834727369919700,0.972919677734375,-3.1497738361358643,1.0628291368484497,0.2140319049358368
1712834727389919700,0.992919677734375,-3.300046682357788,0.5368741750717163,0.48953214287757874
1712834727409919700,1.012919677734375,-3.3171510696411133,-0.09842566400766373,0.6917285323143005
1712834727429919700,1.032919677734375,-3.355635404586792,-0.6934084296226501,0.8982009887695312
1712834727449919700,1.052919677734375,-3.1033482551574707,-1.4948636293411255,1.2421181201934814
1712834727469919700,1.072919677734375,-2.6873488426208496,-2.1136701107025146,1.645900011062622
1712834727489919700,1.092919677734375,-2.0813705921173096,-2.73675274848938,1.9146807193756104
1712834727509919700,1.112919677734375,-1.0416779518127441,-3.248657703399658,1.9830976724624634
1712834727529919700,1.132919677734375,0.19043724238872528,-3.996356725692749,2.033799409866333
1712834727549919700,1.152919677734375,0.879493236541748,-4.746499538421631,2.1327595710754395
1712834727569920000,1.172919921875,1.0346530675888062,-4.907156944274902,2.6721537113189697
1712834727589920000,1.192919921875,1.3694071769714355,-4.2126030921936035,3.0814332962036133
1712834727609920000,1.212919921875,1.553277611732483,-2.7110962867736816,3.1266374588012695
1712834727629920000,1.232919921875,0.8006916046142578,-1.2303589582443237,2.7155251502990723
1712834727649920000,1.252919921875,0.5422956347465515,-0.4142429828643799,2.477287530899048
1712834727669919700,1.272919677734375,0.22586742043495178,-0.6512587070465088,2.494391918182373
1712834727689919700,1.292919677734375,-0.2945897579193115,-0.7819838523864746,1.8914679288864136
1712834727709920000,1.312919921875,-0.22739458084106445,-0.6457608938217163,0.9049205183982849
1712834727729920000,1.332919921875,0.44577890634536743,0.1373683214187622,0.13339769840240479
1712834727749920000,1.352919921875,1.1128437519073486,1.778152346611023,-0.35040757060050964
1712834727769920000,1.372919921875,2.0865628719329834,3.4109952449798584,-0.9209557175636292
1712834727789920000,1.392919921875,2.8855748176574707,4.275980472564697,-0.8030587434768677
1712834727809919700,1.412919677734375,3.1641292572021484,4.077449321746826,-0.7071529030799866
1712834727829919700,1.432919677734375,2.7010934352874756,4.024914741516113,-1.1891255378723145
1712834727849919700,1.452919677734375,2.28937029838562,4.3969316482543945,-1.5470925569534302
1712834727869919700,1.472919677734375,2.235614061355591,3.8495965003967285,-1.916666030883789
1712834727889919700,1.492919677734375,2.612517833709717,3.02248477935791,-2.05838680267334
1712834727909919700,1.512919677734375,2.5703682899475098,2.376800298690796,-1.7566193342208862
1712834727929919700,1.532919677734375,2.1794145107269287,2.6889524459838867,-1.6949219703674316
1712834727949919700,1.552919677734375,1.6626224517822266,3.6431238651275635,-1.641165852546692
1712834727969919700,1.572919677734375,1.1122329235076904,4.644942760467529,-1.549536108970642
1712834727989919700,1.592919677734375,0.39996400475502014,4.988860130310059,-1.4957798719406128
1712834728009919700,1.612919677734375,-0.17302757501602173,4.7988810539245605,-1.4524084329605103
1712834728029919700,1.632919677734375,-0.26282477378845215,4.043240547180176,-1.3711633682250977
1712834728049919700,1.652919677734375,-0.047800205647945404,3.125110149383545,-0.8690321445465088
1712834728069920000,1.672919921875,-0.6678284406661987,3.817831516265869,-1.2215014696121216
1712834728089920000,1.692919921875,-2.1009182929992676,4.236885070800781,-1.272814154624939
1712834728109920000,1.712919921875,-2.50408935546875,3.627852439880371,-0.9655488729476929
1712834728129920000,1.732919921875,-2.108248710632324,2.2723424434661865,-0.8623126745223999
1712834728149920000,1.752919921875,-2.194380760192871,1.1391873359680176,-0.5910884737968445
1712834728169682000,1.772681884765625,-2.4240660667419434,0.46357035636901855,-0.2722168266773224
1712834728189682000,1.792681884765625,-2.1949915885925293,-0.19310978055000305,-0.19402606785297394
1712834728209682200,1.81268212890625,-2.1265745162963867,-0.5266422033309937,-0.12438743561506271
1712834728229682200,1.83268212890625,-2.1626157760620117,-0.45700356364250183,0.17493653297424316
1712834728249682200,1.85268212890625,-2.1143572330474854,-0.246865913271904,0.396680623292923
1712834728269682200,1.87268212890625,-1.9848538637161255,0.1074359267950058,0.5457317233085632
1712834728289682200,1.89268212890625,-1.8107572793960571,0.13187053799629211,0.6734025478363037
1712834728309682000,1.912681884765625,-1.6672040224075317,-0.1149190217256546,1.0222066640853882
1712834728329682000,1.932681884765625,-1.5560264587402344,-0.47716212272644043,1.6098589897155762
1712834728349682000,1.952681884765625,-1.421025276184082,-1.0269408226013184,2.1584160327911377
1712834728369682000,1.972681884765625,-1.144914150238037,-1.755703091621399,2.6935338973999023
1712834728389682000,1.992681884765625,-0.9879218339920044,-2.8369345664978027,3.289738416671753
1712834728409682000,2.012681884765625,-0.9207266569137573,-3.479564905166626,3.6354880332946777
1712834728429682000,2.032681884765625,-0.7625125646591187,-4.072714805603027,3.9195404052734375
1712834728449682000,2.052681884765625,-0.4528038501739502,-4.92365026473999,4.063093662261963
1712834728469682000,2.072681884765625,0.2142609804868698,-5.814291954040527,4.055152416229248
1712834728489682000,2.092681884765625,0.8874344825744629,-6.65300989151001,3.6715292930603027
1712834728509682000,2.112681884765625,0.9851729273796082,-7.2162275314331055,3.3508248329162598
1712834728529682000,2.132681884765625,0.7096726894378662,-6.667059421539307,3.141909122467041
1712834728549682000,2.152681884765625,0.4622722864151001,-4.947474002838135,3.295236110687256
1712834728569682200,2.17268212890625,0.4628831446170807,-3.268205404281616,3.3801465034484863
1712834728589682200,2.19268212890625,0.3101668357849121,-1.8809304237365723,2.8480827808380127
1712834728609682200,2.21268212890625,0.4928155243396759,-1.2205851078033447,1.715538740158081
1712834728629682200,2.23268212890625,0.4634940028190613,-1.1118510961532593,1.4498122930526733
1712834728649682200,2.25268212890625,-0.4534147381782532,-1.4679855108261108,1.0277043581008911
1712834728669682000,2.272681884765625,-0.35323283076286316,-1.4276684522628784,0.3997349441051483
1712834728689682000,2.292681884765625,1.028544306755066,-0.22731822729110718,-0.3565162420272827
1712834728709682200,2.31268212890625,2.847701072692871,2.1434497833251953,-1.0938305854797363
1712834728729682200,2.33268212890625,4.213595867156982,5.573458194732666,-1.5000559091567993
1712834728749682200,2.35268212890625,3.0505082607269287,8.487895965576172,-1.735239028930664
1712834728769682200,2.37268212890625,2.1097757816314697,9.159236907958984,-2.1823923587799072
1712834728789682200,2.39268212890625,2.1934642791748047,8.287532806396484,-2.122527599334717
1712834728809682000,2.412681884765625,3.1635184288024902,4.8966193199157715,-1.6069574356079102
1712834728829682000,2.432681884765625,3.586848020553589,1.9895117282867432,-2.103590726852417
1712834728849682000,2.452681884765625,1.869094967842102,1.5930602550506592,-3.370525360107422
1712834728869682000,2.472681884765625,-1.2567025423049927,4.288808345794678,-1.7786104679107666
1712834728889682000,2.492681884765625,-0.8547531962394714,2.3725242614746094,-0.9466120600700378
1712834728909682000,2.512681884765625,-0.40515637397766113,1.2686907052993774,-0.7248679995536804
1712834728929682000,2.532681884765625,-0.7527387142181396,0.08422304689884186,-0.7230353951454163
1712834728949682000,2.552681884765625,-0.9195048809051514,-0.18272507190704346,-0.7609090209007263
1712834728969682000,2.572681884765625,-1.4955508708953857,-0.33483052253723145,-0.38522690534591675
1712834728989682000,2.592681884765625,-1.9225456714630127,0.128205344080925,0.6850090026855469
1712834729009682000,2.612681884765625,-1.9604192972183228,0.39759692549705505,1.8768070936203003
1712834729029682000,2.632681884765625,-2.101529121398926,-0.16745343804359436,2.647719144821167
1712834729049682000,2.652681884765625,-1.6623170375823975,-1.7422640323638916,2.639777898788452
1712834729069682200,2.67268212890625,-1.2023354768753052,-3.657937526702881,2.5377633571624756
1712834729089682200,2.69268212890625,-1.3489432334899902,-4.705571174621582,2.648329973220825
1712834729109682200,2.71268212890625,-0.9750936627388,-5.7061686515808105,2.706362009048462
1712834729129682200,2.73268212890625,-0.11133018881082535,-5.8765997886657715,2.3257930278778076
1712834729149682200,2.75268212890625,0.7707592248916626,-5.43189001083374,1.9446130990982056
1712834729169682000,2.772681884765625,1.0810787677764893,-4.234594345092773,2.047849416732788
1712834729189682000,2.792681884765625,0.7121161818504333,-2.4924066066741943,2.1608593463897705
1712834729209682200,2.81268212890625,0.2197587788105011,-1.1240683794021606,1.663615107536316
1712834729229682200,2.83268212890625,-0.16325373947620392,-1.099633812904358,1.2286790609359741
1712834729249682200,2.85268212890625,0.09392052888870239,-1.6506342887878418,-0.09628763794898987
1712834729269682200,2.87268212890625,2.0700695514678955,1.4232397079467773,-1.784108281135559
1712834729289682200,2.89268212890625,4.661970615386963,4.387157917022705,-1.041296124458313
1712834729309682000,2.912681884765625,3.651599645614624,8.902673721313477,-0.6289620995521545
1712834729329682000,2.932681884765625,2.8018860816955566,9.750555038452148,-0.5947536826133728
1712834729349682000,2.952681884765625,3.2447633743286133,6.181879997253418,-1.233718752861023
1712834729369682000,2.972681884765625,2.5752551555633545,3.434818983078003,-1.7480672597885132
1712834729389682000,2.992681884765625,1.7988454103469849,2.8416688442230225,-2.5018749237060547
1712834729409682000,3.012681884765625,0.37919458746910095,4.144644260406494,-2.547079086303711
1712834729429682000,3.032681884765625,-0.43875396251678467,4.128150939941406,-2.062052011489868
1712834729449682000,3.052681884765625,-1.1705704927444458,3.200246572494507,-1.4591280221939087
1712834729469682000,3.072681884765625,-1.9323195219039917,1.7146223783493042,-1.0461831092834473
1712834729489682000,3.092681884765625,-1.7441730499267578,0.0823904499411583,-0.5855907201766968
1712834729509682000,3.112681884765625,-2.028836250305176,-1.2083678245544434,-0.06330090761184692
1712834729529682000,3.132681884765625,-2.2652411460876465,-1.8210656642913818,0.36308303475379944
1712834729549682000,3.152681884765625,-2.323273181915283,-1.8198438882827759,0.9513462781906128
1712834729569682200,3.17268212890625,-2.4497222900390625,-1.7434858083724976,1.4400384426116943
1712834729589682200,3.19268212890625,-2.479043960571289,-1.880319595336914,1.7582992315292358
1712834729609682200,3.21268212890625,-2.2707388401031494,-2.488130569458008,2.3056344985961914
1712834729629682200,3.23268212890625,-1.5847371816635132,-3.859523057937622,2.703918695449829
1712834729649682200,3.25268212890625,-0.7710646390914917,-5.836893558502197,2.5646414756774902
1712834729669682000,3.272681884765625,-0.26343563199043274,-7.29075288772583,2.427807569503784
1712834729689682000,3.292681884765625,0.30344730615615845,-6.981044292449951,2.151085615158081
1712834729709682200,3.31268212890625,0.5251913666725159,-4.8631744384765625,2.5927412509918213
1712834729729682200,3.33268212890625,0.23625212907791138,-3.063565492630005,2.7527878284454346
1712834729749682200,3.35268212890625,-0.3006984293460846,-1.384907841682434,2.31540846824646
1712834729769682200,3.37268212890625,-0.8101600408554077,-0.5132031440734863,1.2751048803329468
1712834729789682200,3.39268212890625,-0.42348232865333557,-0.558407187461853,-0.27893635630607605
1712834729809682000,3.412681884765625,1.4054481983184814,2.0206658840179443,-1.126206398010254
1712834729829682000,3.432681884765625,4.299727916717529,4.0004801750183105,-1.2367730140686035
1712834729849682000,3.452681884765625,3.6772561073303223,7.384062767028809,-0.890412449836731
1712834729869682000,3.472681884765625,2.663219690322876,8.575860977172852,-1.6717090606689453
1712834729889682000,3.492681884765625,3.3712124824523926,6.428669452667236,-1.8513034582138062
1712834729909682000,3.512681884765625,2.8971810340881348,4.68526029586792,-1.8824576139450073
1712834729929682000,3.532681884765625,2.4213171005249023,3.4561991691589355,-2.525087833404541
1712834729949682000,3.552681884765625,1.6760615110397339,3.580204725265503,-3.2251393795013428
1712834729969682000,3.572681884765625,0.39446622133255005,3.57776141166687,-2.7046821117401123
1712834729989682000,3.592681884765625,-0.2298380434513092,3.0542497634887695,-1.7205783128738403
1712834730009682000,3.612681884765625,-0.9103419184684753,2.717663049697876,-1.0834459066390991
1712834730029682000,3.632681884765625,-1.609171748161316,1.3939181566238403,-0.9747118353843689
1712834730049682000,3.652681884765625,-1.9701931476593018,-0.010461067780852318,-0.5697082281112671
1712834730069682200,3.67268212890625,-2.2762365341186523,-0.5358051657676697,-0.10545061528682709
1712834730089682200,3.69268212890625,-2.33671236038208,-0.6115524768829346,0.37774381041526794
1712834730109682200,3.71268212890625,-2.1222984790802,-0.5046510696411133,0.9189704060554504
1712834730129682200,3.73268212890625,-1.9420933723449707,-0.843070387840271,1.2909873723983765
1712834730149682200,3.75268212890625,-1.7429512739181519,-1.528461217880249,1.5273921489715576
1712834730169682000,3.772681884765625,-1.4986051321029663,-2.533945322036743,1.9262871742248535
1712834730189682000,3.792681884765625,-1.2744176387786865,-3.8112645149230957,2.586632490158081
1712834730209682200,3.81268212890625,-0.7490735054016113,-4.907156944274902,2.9256627559661865
1712834730229682200,3.83268212890625,-0.4473060667514801,-5.750150680541992,2.6183974742889404
1712834730249682200,3.85268212890625,-0.2402227520942688,-5.9486823081970215,2.5316545963287354
1712834730269682200,3.87268212890625,0.1739438772201538,-5.402568817138672,2.8059332370758057
1712834730289682200,3.89268212890625,0.020616702735424042,-4.049501895904541,2.941545248031616
1712834730309682000,3.912681884765625,-1.2322678565979004,-2.441704750061035,2.4754550457000732
1712834730329682000,3.932681884765625,-2.1565070152282715,-1.394681692123413,1.3258066177368164
1712834730349682000,3.952681884765625,-1.3513866662979126,-1.634751796722412,0.0038942659739404917
1712834730369682000,3.972681884765625,0.03039054572582245,0.9498190879821777,-1.3125203847885132
1712834730389682000,3.992681884765625,2.922837495803833,2.6632962226867676,-0.7951174974441528
1712834730409682000,4.012681884765625,3.6980254650115967,5.61316442489624,-0.5128977298736572
1712834730429682000,4.032681884765625,2.4744625091552734,8.423144340515137,-1.110934853553772
1712834730449682000,4.052681884765625,2.01814603805542,8.296695709228516,-0.9802096486091614
1712834730469682000,4.072681884765625,2.136043071746826,6.586272716522217,-1.6387224197387695
1712834730489682000,4.092681884765625,2.001041889190674,5.157458782196045,-2.961245536804199
1712834730509682000,4.112681884765625,0.8373435139656067,4.7206902503967285,-3.602654218673706
1712834730529682000,4.132681884765625,-0.4069889783859253,3.370677947998047,-2.614885091781616
1712834730549682000,4.152681884765625,-0.8840747475624084,1.7158441543579102,-0.8751408457756042
1712834730569682200,4.17268212890625,-1.1137601137161255,1.076268196105957,-0.6167448163032532
1712834730589682200,4.19268212890625,-1.7692184448242188,-0.6176611185073853,-0.7444156408309937
1712834730609682200,4.21268212890625,-2.1479549407958984,-0.8363508582115173,-0.1146135926246643
1712834730629682200,4.23268212890625,-2.152841806411743,-0.5077053904533386,0.18104518949985504
1712834730649682200,4.25268212890625,-1.9940168857574463,-0.01290452852845192,0.7039458155632019
1712834730669682000,4.272681884765625,-2.0416643619537354,0.11415544152259827,1.4327080249786377
1712834730689682000,4.292681884765625,-1.9353737831115723,-0.4227951169013977,1.9739346504211426
1712834730709682200,4.31268212890625,-1.7484490871429443,-1.5168547630310059,2.4308619499206543
1712834730729682200,4.33268212890625,-1.3666582107543945,-3.6267833709716797,3.0600531101226807
1712834730749682200,4.35268212890625,-0.916450560092926,-6.7055439949035645,3.0117948055267334
1712834730769682200,4.37268212890625,-0.5187773108482361,-7.5454840660095215,2.5463154315948486
1712834730789682200,4.39268212890625,-0.1388191282749176,-6.980433464050293,2.3062453269958496
1712834730809682000,4.412681884765625,0.2154827117919922,-5.411120891571045,2.614121437072754
1712834730829682000,4.432681884765625,0.3016147017478943,-3.652439594268799,2.784552812576294
1712834730849682000,4.452681884765625,-0.2444988191127777,-1.9310214519500732,2.644664764404297
1712834730869682000,4.472681884765625,-1.3764320611953735,-0.700738787651062,1.7033213376998901
1712834730889682000,4.492681884765625,-1.2377656698226929,-0.9707412123680115,0.5988770127296448
1712834730909682000,4.512681884765625,-0.25244006514549255,0.401262104511261,-0.8959102630615234
1712834730929682000,4.532681884765625,2.1623103618621826,2.4433846473693848,-0.9056841135025024
1712834730949682000,4.552681884765625,4.4066290855407715,4.604014873504639,-0.6931029558181763
1712834730969682000,4.572681884765625,2.7395780086517334,7.743862152099609,-0.7841218709945679
1712834730989682000,4.592681884765625,1.4891366958618164,9.369375228881836,-1.1524736881256104
1712834731009682000,4.612681884765625,1.3730723857879639,7.28265905380249,-1.69858717918396
1712834731029682000,4.632681884765625,1.5447255373001099,4.516050338745117,-2.2526419162750244
1712834731049682000,4.652681884765625,1.2056952714920044,3.7298667430877686,-2.3289999961853027
1712834731069682200,4.67268212890625,-0.09605856239795685,4.38899040222168,-2.901991605758667
1712834731089682200,4.69268212890625,-0.9060658812522888,2.8166232109069824,-2.4114668369293213
1712834731109682200,4.71268212890625,-1.447292447090149,1.8795560598373413,-1.3901002407073975
1712834731129682200,4.73268212890625,-2.1424572467803955,1.2412018775939941,-0.5825363397598267
1712834731149682200,4.75268212890625,-2.249358654022217,0.02802344225347042,-0.2215150147676468
1712834731169682000,4.772681884765625,-2.168724298477173,-0.7667122483253479,0.17188221216201782
1712834731189682000,4.792681884765625,-2.2353086471557617,-1.0012844800949097,0.5274057984352112
1712834731209682200,4.81268212890625,-2.3678665161132812,-0.8277987837791443,1.3453543186187744
1712834731229682200,4.83268212890625,-2.2401955127716064,-0.7282277345657349,2.017306089401245
1712834731249682200,4.85268212890625,-2.171778678894043,-1.0855839252471924,2.531043767929077
1712834731269682200,4.87268212890625,-2.082592248916626,-2.2523365020751953,3.0099620819091797
1712834731289682200,4.89268212890625,-1.601230502128601,-4.296291828155518,3.3056209087371826
1712834731309682000,4.912681884765625,-1.2096658945083618,-6.192417144775391,3.163900136947632
1712834731329682000,4.932681884765625,-0.7191411256790161,-7.120932579040527,2.5298221111297607
1712834731349682000,4.952681884765625,-0.027641652151942253,-6.942559719085693,2.2421045303344727
1712834731369682000,4.972681884765625,0.5044219493865967,-5.626756191253662,2.368553638458252
1712834731389682000,4.992681884765625,0.4384485185146332,-3.618842124938965,2.4174227714538574
1712834731409682000,5.012681884765625,-0.2402227520942688,-1.7159968614578247,2.234163284301758
1712834731429682000,5.032681884765625,-0.6091853380203247,-1.0501537322998047,1.4889076948165894
1712834731449682000,5.052681884765625,-0.5511531829833984,-1.1057424545288086,0.5506186485290527
1712834731469682000,5.072681884765625,0.5056437253952026,0.25587618350982666,-0.9246209263801575
1712834731489682000,5.092681884765625,2.7841711044311523,2.466597557067871,-1.016250729560852
1712834731509648600,5.112648681640625,4.256356239318848,5.201441287994385,-0.7743480801582336
1712834731529615400,5.132615478515625,2.6400067806243896,8.194681167602539,-1.1982885599136353
1712834731549582000,5.15258203125,1.9466748237609863,9.242925643920898,-1.9270508289337158
1712834731569548500,5.172548583984375,1.9967657327651978,7.748749256134033,-1.9966894388198853
1712834731589515300,5.192515380859375,1.9601138830184937,5.079267978668213,-2.2550854682922363
1712834731609482000,5.21248193359375,1.4830280542373657,3.343189239501953,-2.7584383487701416
1712834731629448700,5.23244873046875,0.3822489380836487,3.2662200927734375,-3.002173662185669
1712834731649415400,5.25241552734375,-0.3911064863204956,1.922316551208496,-2.419408082962036
1712834731669381600,5.272381591796875,-0.9323330521583557,1.1147527694702148,-1.3937654495239258
1712834731689348400,5.292348388671875,-1.3892602920532227,0.9272170662879944,-0.7364743947982788
1712834731709315000,5.312315185546875,-1.8425222635269165,0.26015225052833557,-0.5012912750244141
1712834731729281800,5.33228173828125,-2.1033618450164795,0.09399688988924026,-0.13232868909835815
1712834731749248300,5.352248291015625,-2.227367401123047,0.06589708477258682,0.2726749777793884
1712834731769215000,5.372215087890625,-1.9946277141571045,0.05062545835971832,0.7686975598335266
1712834731789182000,5.392181884765625,-1.7411186695098877,-0.09170614182949066,1.305037260055542
1712834731809148400,5.4121484375,-1.5291484594345093,-0.6414848566055298,1.8584811687469482
1712834731829115000,5.432114990234375,-0.9634872078895569,-1.708666443824768,2.3673319816589355
1712834731849081600,5.45208154296875,-0.3006984293460846,-3.1967341899871826,2.483396291732788
1712834731869048300,5.47204833984375,-0.06612616032361984,-4.373871326446533,2.505998373031616
1712834731889015000,5.49201513671875,0.2050980031490326,-5.249241352081299,2.513939619064331
1712834731908981800,5.511981689453125,0.5728389024734497,-5.830785274505615,2.449187755584717
1712834731928948500,5.531948486328125,0.8367326855659485,-5.78191614151001,2.739348888397217
1712834731948915200,5.551915283203125,1.1580477952957153,-5.186322212219238,2.8566348552703857
1712834731968882000,5.5718818359375,0.5117523670196533,-3.8827359676361084,2.7668378353118896
1712834731988848600,5.5918486328125,-1.0196868181228638,-2.4936282634735107,2.083890438079834
1712834732008815000,5.611815185546875,-1.3238977193832397,-1.425225019454956,1.0185414552688599
1712834732028781800,5.63178173828125,-0.6018549799919128,-0.20899227261543274,-0.3058144152164459
1712834732048748500,5.65174853515625,1.0242682695388794,2.170938730239868,-0.9331730008125305
1712834732068715300,5.67171533203125,3.824474573135376,3.1984140872955322,-0.41638103127479553
1712834732088682000,5.691681884765625,3.158020496368408,5.0444488525390625,-0.29909488558769226
1712834732108682000,5.711681884765625,2.015702486038208,7.089015007019043,-0.19402606785297394
1712834732128682000,5.731681884765625,1.9295705556869507,6.718219757080078,-0.3259729743003845
1712834732148682000,5.751681884765625,1.971109390258789,4.551480770111084,-1.2764792442321777
1712834732168682000,5.771681884765625,1.7988454103469849,5.036507606506348,-2.5574636459350586
1712834732188682000,5.791681884765625,0.6180428862571716,5.691355228424072,-3.0424907207489014
1712834732208682000,5.811681884765625,-0.46563202142715454,4.148309707641602,-2.3253350257873535
1712834732228682000,5.831681884765625,-0.8571966290473938,2.089693546295166,-0.938670814037323
1712834732248682000,5.851681884765625,-1.116814374923706,-0.8736136555671692,-0.26366472244262695
1712834732268682000,5.871681884765625,-1.3464996814727783,-2.0458641052246094,-0.3485749661922455
1712834732288682200,5.89168212890625,-1.649488925933838,-1.8638262748718262,-0.4432590901851654
1712834732308682200,5.91168212890625,-1.8840610980987549,-1.1845440864562988,0.1724930703639984
1712834732328682200,5.93168212890625,-1.9549214839935303,-0.4325689375400543,0.8499426245689392
1712834732348682200,5.95168212890625,-1.7673858404159546,-0.14424055814743042,1.1559860706329346
1712834732368682200,5.97168212890625,-1.4931073188781738,-0.48693597316741943,1.553659439086914
1712834732388682000,5.991681884765625,-1.2731958627700806,-1.8271743059158325,2.243326187133789
1712834732408682000,6.011681884765625,-0.7154759168624878,-4.208938121795654,2.6690993309020996
1712834732428682200,6.03168212890625,-0.33429601788520813,-6.14538049697876,2.189570188522339
1712834732448682200,6.05168212890625,-0.16814066469669342,-6.945003509521484,1.8401552438735962
1712834732468682200,6.07168212890625,0.2643519341945648,-6.143548011779785,1.9238437414169312
1712834732488682200,6.09168212890625,0.5038111209869385,-4.7263407707214355,2.1016054153442383
1712834732508682200,6.11168212890625,-0.24755313992500305,-2.852206230163574,1.9409480094909668
1712834732528682000,6.131681884765625,-1.3715451955795288,-1.6078736782073975,1.0881800651550293
1712834732548682000,6.151681884765625,-0.5859724879264832,-1.1338422298431396,-0.35407277941703796
1712834732568682000,6.171681884765625,0.9259189963340759,1.7677676677703857,-1.73646080493927
1712834732588682000,6.191681884765625,3.472616195678711,4.02613639831543,-1.3827698230743408
1712834732608682000,6.211681884765625,3.9038870334625244,6.151336669921875,-0.6430120468139648
1712834732628682000,6.231681884765625,2.4298691749572754,7.997982501983643,-1.1152108907699585
1712834732648682000,6.251681884765625,1.8416060209274292,7.547163963317871,-1.346728801727295
1712834732668682000,6.271681884765625,1.761582612991333,4.827591896057129,-1.9630918502807617
1712834732688682000,6.291681884765625,1.5697709321975708,2.5130233764648438,-2.3198370933532715
1712834732708682000,6.311681884765625,0.982729434967041,1.8099173307418823,-1.908113956451416
1712834732728682000,6.331681884765625,0.39324450492858887,3.426877737045288,-2.349158763885498
1712834732748682000,6.351681884765625,-0.6183483600616455,2.695672035217285,-2.5996134281158447
1712834732768682000,6.371681884765625,-1.3110694885253906,2.089693546295166,-1.0730611085891724
1712834732788682200,6.39168212890625,-1.6916385889053345,1.800754427909851,-0.17264579236507416
1712834732808682200,6.41168212890625,-1.8413006067276,0.40309470891952515,-0.28993192315101624
1712834732828682200,6.43168212890625,-1.8944458961486816,-0.4789946973323822,0.14683672785758972
1712834732848682200,6.45168212890625,-1.7985399961471558,-0.8638398051261902,0.7186065912246704
1712834732868682200,6.47168212890625,-1.7124079465866089,-1.1454486846923828,1.331915259361267
1712834732888682000,6.491681884765625,-1.656819224357605,-1.2657891511917114,1.8126662969589233
1712834732908682000,6.511681884765625,-1.4729487895965576,-1.7893006801605225,1.9543869495391846
1712834732928682200,6.53168212890625,-1.108262300491333,-2.9975922107696533,2.4675137996673584
1712834732948682200,6.55168212890625,-0.6049093008041382,-4.475275039672852,2.4559073448181152
1712834732968682200,6.57168212890625,-0.4112650156021118,-5.852776050567627,2.259819507598877
1712834732988682200,6.59168212890625,-0.1339322030544281,-6.612692832946777,2.4901158809661865
1712834733008682200,6.61168212890625,0.35781431198120117,-6.484410762786865,2.508441686630249
1712834733028682000,6.631681884765625,0.30283644795417786,-5.575443267822266,2.6067910194396973
1712834733048682000,6.651681884765625,-0.5627595782279968,-4.026900291442871,2.3648884296417236
1712834733068682000,6.671681884765625,-1.621999979019165,-2.5327236652374268,1.2714396715164185
1712834733088682000,6.691681884765625,-1.4265230894088745,-1.7941875457763672,0.8065711855888367
1712834733108682000,6.711681884765625,-0.29397889971733093,0.3041345477104187,-0.9985355734825134
1712834733128682000,6.731681884765625,1.9088011980056763,2.6718482971191406,-1.1414780616760254
1712834733148682000,6.751681884765625,3.54225492477417,4.558811187744141,-0.6515641212463379
1712834733168682000,6.771681884765625,2.6846001148223877,6.858107566833496,-0.35407277941703796
1712834733188682000,6.791681884765625,1.896583914756775,7.286324501037598,-0.5177846550941467
1712834733208682000,6.811681884765625,1.4659239053726196,6.322379112243652,-1.2153927087783813
1712834733228682000,6.831681884765625,1.7340936660766602,4.003534317016602,-1.9435441493988037
1712834733248682000,6.851681884765625,1.3694071769714355,4.44580078125,-2.6820802688598633
1712834733268682000,6.871681884765625,-0.0074830991216003895,4.889899730682373,-3.060816764831543
1712834733288682200,6.89168212890625,-1.0264062881469727,3.6577847003936768,-2.2361485958099365
1712834733308682200,6.91168212890625,-1.317789077758789,2.089082717895508,-0.7511351704597473
1712834733328682200,6.93168212890625,-1.724014401435852,0.3310126066207886,-0.26977336406707764
1712834733348682200,6.95168212890625,-2.2603540420532227,-1.251739263534546,-0.17447838187217712
1712834733368682200,6.97168212890625,-2.3049473762512207,-1.7129424810409546,0.09918924421072006
1712834733388682000,6.991681884765625,-2.2395846843719482,-1.4820353984832764,0.49991685152053833
1712834733408682000,7.011681884765625,-2.059990406036377,-0.8351291418075562,1.0374782085418701
1712834733428682200,7.03168212890625,-1.8529070615768433,-0.37087157368659973,1.514564037322998
1712834733448682200,7.05168212890625,-1.5664112567901611,-0.9230937361717224,2.02219295501709
1712834733468682200,7.07168212890625,-1.0978775024414062,-2.4563655853271484,2.3166301250457764
1712834733488682200,7.09168212890625,-0.5181664228439331,-4.31461763381958,2.4180335998535156
1712834733508682200,7.11168212890625,0.07254024595022202,-5.965786457061768,2.7057511806488037
1712834733528682000,7.131681884765625,0.7365507483482361,-6.430655002593994,2.457740068435669
1712834733548682000,7.151681884765625,1.0028879642486572,-5.913251876831055,2.5719716548919678
1712834733568682000,7.171681884765625,0.8165740966796875,-4.910211086273193,2.8444175720214844
1712834733588682000,7.191681884765625,0.14278975129127502,-3.2602641582489014,2.731407642364502
1712834733608682000,7.211681884765625,-1.1943942308425903,-1.7679203748703003,1.9385044574737549
1712834733628682000,7.231681884765625,-0.7417431473731995,-1.2102004289627075,0.06498079001903534
1712834733648682000,7.251681884765625,1.3382530212402344,2.2729532718658447,-1.026024580001831
1712834733668682000,7.271681884765625,3.503159523010254,3.524616003036499,-0.8232172727584839
1712834733688682000,7.291681884765625,3.3015739917755127,6.249074935913086,-0.3155882656574249
1712834733708682000,7.311681884765625,2.503783941268921,7.370623588562012,-0.2972623109817505
1712834733728682000,7.331681884765625,2.0224220752716064,6.02672004699707,-0.9637162685394287
1712834733748682000,7.351681884765625,1.7634152173995972,4.450077056884766,-1.899561882019043
1712834733768682000,7.371681884765625,1.380402684211731,3.030426025390625,-2.122527599334717
1712834733788682200,7.39168212890625,1.2710578441619873,3.566765785217285,-2.282574415206909
1712834733808682200,7.41168212890625,0.5728389024734497,4.269260883331299,-2.734614610671997
1712834733828682200,7.43168212890625,-0.5199990272521973,3.507511854171753,-2.2141573429107666
1712834733848682200,7.45168212890625,-1.048397421836853,2.385963201522827,-1.1628583669662476
1712834733868682200,7.47168212890625,-1.2066116333007812,0.8160396218299866,-0.5568800568580627
1712834733888682000,7.491681884765625,-1.5493069887161255,-0.16806429624557495,-0.5794820189476013
1712834733908682000,7.511681884765625,-1.8113682270050049,-0.5339725613594055,-0.4640285074710846
1712834733928682200,7.53168212890625,-1.8150333166122437,-0.2609158158302307,0.08147415518760681
1712834733948682200,7.55168212890625,-1.7832683324813843,0.06589708477258682,0.7766388058662415
1712834733968682200,7.57168212890625,-1.8748981952667236,-0.031841352581977844,1.1523209810256958
1712834733988682200,7.59168212890625,-1.8266397714614868,-0.5364160537719727,1.579926609992981
1712834734008682200,7.61168212890625,-1.6653714179992676,-1.593823790550232,2.0777816772460938
1712834734028682000,7.631681884765625,-1.3788756132125854,-3.066619873046875,2.7668378353118896
1712834734048682000,7.651681884765625,-1.0911580324172974,-5.218087196350098,3.144963264465332
1712834734068682000,7.671681884765625,-0.898124635219574,-6.683553218841553,2.9226083755493164
1712834734088682000,7.691681884765625,-0.6800457239151001,-7.390324115753174,2.603736639022827
1712834734108682000,7.711681884765625,-0.15042556822299957,-7.12337589263916,2.5408177375793457
1712834734128682000,7.731681884765625,0.37308594584465027,-4.85095739364624,2.75095534324646
1712834734148682000,7.751681884765625,-0.18157969415187836,-2.9865965843200684,2.955595016479492
1712834734168682000,7.771681884765625,-1.3800972700119019,-1.1564443111419678,2.228665590286255
1712834734188682000,7.791681884765625,-1.4020884037017822,-0.510148823261261,1.1089495420455933
1712834734208682000,7.811681884765625,-0.08384125679731369,-0.1863902509212494,-0.5159520506858826
1712834734228682000,7.831681884765625,2.01509165763855,2.8227319717407227,-1.3137420415878296
1712834734248682000,7.851681884765625,4.0492730140686035,5.166621685028076,-0.9056841135025024
1712834734268682000,7.871681884765625,2.7896687984466553,7.848931312561035,-0.643622875213623
1712834734288682200,7.89168212890625,1.8519906997680664,8.376108169555664,-0.48052188754081726
1712834734308682200,7.91168212890625,1.848325490951538,5.900270938873291,-1.9301050901412964
1712834734328682200,7.93168212890625,1.707215666770935,3.1128928661346436,-2.7895925045013428
1712834734348682200,7.95168212890625,1.2918273210525513,2.639472484588623,-2.6735281944274902
1712834734368682200,7.97168212890625,0.4225660264492035,4.343175411224365,-3.0589840412139893
1712834734388682000,7.991681884765625,-0.8914051055908203,4.6034040451049805,-2.7529406547546387
1712834734408682000,8.011681884765625,-1.0569496154785156,3.5533268451690674,-1.909335732460022
1712834734428682200,8.03168212890625,-1.3507757186889648,2.0860283374786377,-1.4621822834014893
1712834734448682200,8.05168212890625,-2.3012821674346924,0.9376018047332764,-1.1579713821411133
1712834734468682200,8.07168212890625,-2.6036603450775146,0.03352123126387596,-0.6833291053771973
1712834734488682200,8.09168212890625,-2.496148109436035,-0.3867540657520294,0.07780896127223969
1712834734508682200,8.11168212890625,-2.3654229640960693,-0.34949126839637756,0.6147595047950745
1712834734528682000,8.131681884765625,-2.277458429336548,-0.1753946840763092,0.9275225400924683
1712834734548682000,8.151681884765624,-2.07159686088562,-0.1460731476545334,1.3227523565292358
1712834734568682000,8.171681884765626,-1.9127718210220337,-0.6231589317321777,1.8835266828536987
1712834734588682000,8.191681884765625,-1.2713632583618164,-2.2089650630950928,2.527989387512207
1712834734608682000,8.211681884765625,-0.8443684577941895,-3.739182472229004,2.669710159301758
1712834734628682000,8.231681884765624,-0.5535966157913208,-5.208924293518066,2.8694632053375244
1712834734648682000,8.251681884765626,0.13118331134319305,-6.039700984954834,2.9366583824157715
1712834734668682000,8.271681884765625,0.8294022679328918,-6.273051738739014,2.9873602390289307
1712834734688682000,8.291681884765625,1.1647672653198242,-5.930356025695801,2.9586493968963623
1712834734708682000,8.311681884765624,0.9686795473098755,-4.7232866287231445,3.114420175552368
1712834734728682000,8.331681884765626,0.11407908797264099,-3.250490427017212,2.948875665664673
1712834734748682000,8.351681884765625,-1.3776538372039795,-1.490587592124939,2.017306089401245
1712834734768682000,8.371681884765625,-0.8486445546150208,-0.9615782499313354,0.23785565793514252
1712834734788682200,8.39168212890625,0.21670444309711456,1.7201201915740967,-0.8928559422492981
1712834734808682200,8.41168212890625,2.068847894668579,3.5178966522216797,-1.1494193077087402
1712834734828682200,8.43168212890625,3.5990653038024902,4.374940395355225,-0.6118578910827637
1712834734848682200,8.45168212890625,2.7126998901367188,5.498932361602783,-0.9502772688865662
1712834734868682200,8.47168212890625,2.1849122047424316,5.660811901092529,-1.3736069202423096
1712834734888682000,8.491681884765624,1.7450892925262451,4.448855400085449,-1.4957798719406128
1712834734908682000,8.511681884765625,1.7395914793014526,3.7274234294891357,-1.6448310613632202
1712834734928682200,8.53168212890625,1.8635971546173096,3.4702491760253906,-2.016847848892212
1712834734948682200,8.55168212890625,0.8446739315986633,5.157458782196045,-2.7492754459381104
1712834734968682200,8.57168212890625,-0.24816401302814484,4.353560447692871,-2.8354074954986572
1712834734988682200,8.59168212890625,-1.0563386678695679,2.790356159210205,-1.3699417114257812
1712834735008682200,8.61168212890625,-1.344056248664856,1.7243962287902832,-0.12377656996250153
1712834735028682000,8.631681884765625,-1.3208433389663696,-0.01412625890225172,-0.3278055489063263
1712834735048682000,8.651681884765624,-1.401477575302124,-1.0452667474746704,-0.17753271758556366
1712834735068682000,8.671681884765626,-1.5120441913604736,-0.8956047892570496,0.43883031606674194
1712834735088682000,8.691681884765625,-1.5108224153518677,-0.38980838656425476,1.055193305015564
1712834735108682000,8.711681884765625,-1.2035572528839111,-0.15706872940063477,1.7460819482803345
1712834735128682000,8.731681884765624,-0.6110179424285889,-1.0745882987976074,1.8395442962646484
1712834735148682000,8.751681884765626,-0.34162637591362,-2.6329054832458496,1.9464457035064697
1712834735168682000,8.771681884765625,-0.20295998454093933,-4.287128448486328,2.559143543243408
1712834735188682000,8.791681884765625,0.11591167747974396,-5.553452491760254,2.6208410263061523
1712834735208682000,8.811681884765624,0.4317290186882019,-6.335970878601074,2.6574928760528564
1712834735228682000,8.831681884765626,0.6553056836128235,-5.880265235900879,2.5322654247283936
1712834735248682000,8.851681884765625,0.26313021779060364,-4.935256481170654,2.611067056655884
1712834735268682000,8.871681884765625,-0.8309294581413269,-3.2920291423797607,2.0625102519989014
1712834735288682200,8.89168212890625,-1.726457953453064,-1.705612063407898,1.0160980224609375
1712834735308682200,8.91168212890625,-0.5193881988525391,-0.14362968504428864,-0.39561161398887634
1712834735328682200,8.93168212890625,1.5251778364181519,2.363361358642578,-0.8274933099746704
1712834735348682200,8.95168212890625,3.6198346614837646,3.823329210281372,-0.2905427813529968
1712834735368682200,8.97168212890625,2.7682886123657227,6.236857891082764,-0.41638103127479553
1712834735388682000,8.991681884765624,1.8648189306259155,7.829994201660156,-0.6283512711524963
1712834735408682000,9.011681884765625,1.3449726104736328,7.285713195800781,-1.0284680128097534
1712834735428682200,9.03168212890625,1.7884607315063477,5.1898345947265625,-1.3998740911483765
1712834735448682200,9.05168212890625,1.9216293096542358,3.767740488052368,-1.8879554271697998
1712834735468682200,9.07168212890625,0.9405797719955444,4.529489517211914,-2.795701265335083
1712834735488682200,9.09168212890625,-0.1791362315416336,3.724979877471924,-2.7614927291870117
1712834735508682200,9.11168212890625,-0.6067419052124023,2.111684799194336,-1.7731127738952637
1712834735528682000,9.131681884765625,-1.285413146018982,1.0787116289138794,-0.7376961708068848
1712834735548682000,9.151681884765624,-1.7692184448242188,-0.08315403014421463,-0.6790530681610107
1712834735568682000,9.171681884765626,-1.7527251243591309,-0.6066655516624451,-0.45669811964035034
1712834735588682000,9.191681884765625,-1.648267149925232,-0.5926156640052795,0.1419498175382614
1712834735608682000,9.211681884765625,-1.4802792072296143,-0.35987597703933716,0.8609381914138794
1712834735628682000,9.231681884765624,-1.1406381130218506,-0.7123452425003052,1.5658767223358154
1712834735648682000,9.251681884765626,-0.8376489877700806,-1.700114369392395,1.9238437414169312
1712834735668682000,9.271681884765625,-0.6391177773475647,-3.0678415298461914,1.8969656229019165
1712834735688682000,9.291681884765625,-0.2921462953090668,-3.9890263080596924,1.9995909929275513
1712834735708682000,9.311681884765624,0.21853704750537872,-4.675027847290039,2.0289125442504883
1712834735728682000,9.331681884765626,0.7225008606910706,-5.112407684326172,2.1797962188720703
1712834735748682000,9.351681884765625,0.9069821834564209,-5.16372013092041,2.2133939266204834
1712834735768682000,9.371681884765625,0.3706424832344055,-4.288961410522461,2.1773529052734375
1712834735788682200,9.39168212890625,-0.8578075170516968,-2.8192193508148193,1.7106517553329468
1712834735808682200,9.41168212890625,-1.1259773969650269,-2.064189910888672,0.7008914947509766
1712834735828682200,9.43168212890625,0.28817567229270935,0.047571130096912384,-0.6509532928466797
1712834735848682200,9.45168212890625,2.0444133281707764,2.26501202583313,-0.5727625489234924
1712834735868682200,9.47168212890625,3.4994943141937256,3.248505115509033,-0.28932106494903564
1712834735888682000,9.491681884765624,2.701704263687134,5.2704691886901855,-0.7401396036148071
1712834735908682000,9.511681884765625,2.2209532260894775,6.428058624267578,-1.129260778427124
1712834735928682200,9.53168212890625,1.820225715637207,5.598503589630127,-0.9686031937599182
1712834735948682200,9.55168212890625,2.121993064880371,4.164192199707031,-1.214171051979065
1712834735968682200,9.57168212890625,2.3296873569488525,3.4164929389953613,-1.860466480255127
1712834735988682200,9.59168212890625,1.496467113494873,4.470846176147461,-2.4615578651428223
1712834736008682200,9.61168212890625,0.38469240069389343,3.616856813430786,-2.0357847213745117
1712834736028682000,9.631681884765625,-0.08200865983963013,2.6492462158203125,-1.0858893394470215
1712834736048682000,9.651681884765624,-0.5169447064399719,1.9015471935272217,-0.5141194462776184
1712834736068682000,9.671681884765626,-0.6513350605964661,1.0127382278442383,-0.5813146233558655
1712834736088682000,9.691681884765625,-0.8095491528511047,0.5637522339820862,-0.13721559941768646
1712834736108682000,9.711681884765625,-0.956156849861145,0.5472589135169983,0.48831039667129517
1712834736128682000,9.731681884765624,-0.8987354636192322,0.6559929251670837,0.9049205183982849
1712834736148682000,9.751681884765626,-0.7105889916419983,0.33223432302474976,1.351462960243225
1712834736168682000,9.771681884765625,-0.3825543522834778,-0.7019605040550232,1.9727129936218262
1712834736188682000,9.791681884765625,-0.24816401302814484,-2.5186736583709717,2.3166301250457764
1712834736208682000,9.811681884765624,-0.42959097027778625,-4.353102207183838,2.5090527534484863
1712834736228682000,9.831681884765626,-0.45463645458221436,-5.81062650680542,2.5744152069091797
1712834736248682000,9.851681884765625,-0.15042556822299957,-6.31886625289917,2.1999547481536865
1712834736268682000,9.871681884765625,0.004123340360820293,-5.94929313659668,2.1492528915405273
1712834736288682200,9.89168212890625,-0.3397938013076782,-5.320712566375732,1.9922606945037842
1712834736308682200,9.91168212890625,-1.2053898572921753,-3.8888444900512695,1.6269632577896118
1712834736328682200,9.93168212890625,-1.9396498203277588,-2.592588424682617,0.7363216876983643
1712834736348682200,9.95168212890625,-0.4155410826206207,-0.7972555160522461,-0.8580365777015686
1712834736368682200,9.97168212890625,1.564884066581726,2.0408244132995605,-1.1518627405166626
1712834736388682000,9.991681884765624,2.8067731857299805,4.044462203979492,-0.8757516741752625
1712834736408682000,10.011681884765625,1.9967657327651978,6.490977764129639,-0.8794168829917908
1712834736428682200,10.03168212890625,1.5428929328918457,6.770143032073975,-1.0529025793075562
1712834736448682200,10.05168212890625,1.0444267988204956,5.450674057006836,-1.539762258529663
1712834736468682200,10.07168212890625,0.88987797498703,3.5123987197875977,-2.003408908843994
1712834736488682200,10.09168212890625,0.9888381361961365,2.5741097927093506,-2.0437259674072266
1712834736508682200,10.11168212890625,0.5887213945388794,3.5594353675842285,-3.0712013244628906
1712834736528682000,10.131681884765625,-0.45036038756370544,3.784233808517456,-2.801198959350586
1712834736548682000,10.151681884765624,-0.9860892295837402,2.787301778793335,-1.776777982711792
1712834736568682000,10.171681884765626,-1.1705704927444458,1.524032473564148,-0.615523099899292
1712834736588682000,10.191681884765625,-1.1400272846221924,-0.011682798154652119,-0.2471713423728943
1712834736608682000,10.211681884765625,-1.2414308786392212,-1.0018953084945679,-0.5336671471595764
1712834736628682000,10.231681884765624,-1.3587169647216797,-1.1564443111419678,0.03565925732254982
1712834736648682000,10.251681884765626,-1.2359330654144287,-1.0348820686340332,0.658130943775177
1712834736668682000,10.271681884765625,-1.259145975112915,-0.6249914765357971,1.038699984550476
1712834736688682000,10.291681884765625,-1.0929906368255615,-0.48021644353866577,1.369178056716919
1712834736708682000,10.311681884765624,-0.6727153658866882,-1.224250316619873,1.8737528324127197
1712834736728682000,10.331681884765626,-0.2591595947742462,-2.7636306285858154,2.5878541469573975
1712834736748682000,10.351681884765625,0.21303924918174744,-4.3995280265808105,2.8731284141540527
1712834736768682000,10.371681884765625,0.4537201523780823,-6.082461833953857,2.739959716796875
1712834736788682200,10.39168212890625,0.23380866646766663,-6.535723686218262,2.7741682529449463
1712834736808682200,10.41168212890625,-0.22861631214618683,-6.074520587921143,2.9250519275665283
1712834736828682200,10.43168212890625,-0.7136433124542236,-4.640819549560547,2.7753899097442627
1712834736848682200,10.45168212890625,-2.1259636878967285,-3.202842950820923,2.105881690979004
1712834736868682200,10.47168212890625,-0.9195048809051514,-2.175978422164917,-0.4646393656730652
1712834736888682000,10.491681884765624,0.9161451458930969,0.9730319976806641,-0.14760030806064606
1712834736908682000,10.511681884765625,3.034014940261841,3.9357283115386963,-0.7969500422477722
1712834736928682200,10.53168212890625,2.867248773574829,6.277174949645996,-0.586812436580658
1712834736948682200,10.55168212890625,2.5141687393188477,6.702948093414307,-0.8879690170288086
1712834736968682200,10.57168212890625,2.2734878063201904,5.466556549072266,-1.812819004058838
1712834736988682200,10.59168212890625,1.6161967515945435,4.3969316482543945,-2.125581979751587
1712834737008682200,10.61168212890625,1.5037975311279297,3.699934482574463,-2.2636375427246094
1712834737028682000,10.631681884765625,1.1574369668960571,4.198400497436523,-2.9227612018585205
1712834737048682000,10.651681884765624,0.24908030033111572,4.326682090759277,-2.9618566036224365
1712834737068682000,10.671681884765626,-0.25671613216400146,2.6681830883026123,-2.289904832839966
1712834737088682000,10.691681884765625,-0.40454551577568054,0.9754754304885864,-1.298470377922058
1712834737108682000,10.711681884765625,-0.6079636216163635,-0.21387919783592224,-0.929507851600647
1712834737128682000,10.731681884765624,-0.8016079068183899,-0.6793584823608398,-0.919123113155365
1712834737148682000,10.751681884765626,-0.7954992651939392,-0.2963460087776184,-0.6118578910827637
1712834737168682000,10.771681884765625,-0.9158397316932678,0.6443864703178406,-0.15737415850162506
1712834737188682000,10.791681884765625,-1.3208433389663696,1.2057716846466064,0.5017494559288025
1712834737208682000,10.811681884765624,-1.516931176185608,1.0994811058044434,1.1602622270584106
1712834737228682000,10.831681884765626,-1.5358679294586182,0.061621032655239105,1.776625156402588
1712834737248682000,10.851681884765625,-1.2450960874557495,-1.3262648582458496,2.807154893875122
1712834737268682000,10.871681884765625,-1.0954340696334839,-3.230942726135254,3.5762341022491455
1712834737288682200,10.89168212890625,-0.8455902338027954,-5.710444450378418,3.5279757976531982
1712834737308682200,10.91168212890625,-0.7985535860061646,-7.610846519470215,3.108311414718628
1712834737328682200,10.93168212890625,-0.7417431473731995,-7.996913433074951,2.55853271484375
1712834737348682200,10.95168212890625,-0.735634446144104,-7.049461364746094,2.3031909465789795
1712834737368682200,10.97168212890625,-1.2634220123291016,-5.332930088043213,2.0631210803985596
1712834737388682000,10.991681884765624,-2.5944974422454834,-3.2523229122161865,1.4760794639587402
1712834737408682000,11.011681884765625,-1.288467526435852,-2.1826977729797363,-0.039477165788412094
1712834737428682200,11.03168212890625,0.7212791442871094,0.5478697419166565,-0.8128325939178467
1712834737448682200,11.05168212890625,2.856253147125244,2.4317781925201416,-1.1225411891937256
1712834737468682200,11.07168212890625,2.753016948699951,4.599128246307373,-0.4902957081794739
1712834737488682200,11.09168212890625,2.4072673320770264,5.2985687255859375,-0.6271295547485352
1712834737508682200,11.11168212890625,2.105499744415283,5.04200553894043,-0.8684213161468506
1712834737528682000,11.131681884765625,1.716989517211914,4.458629131317139,-1.3314571380615234
1712834737548682000,11.151681884765624,1.781130313873291,3.899076461791992,-1.8757381439208984
1712834737568682000,11.171681884765626,1.3437508344650269,5.24420166015625,-2.40535831451416
1712834737588682000,11.191681884765625,0.3767511546611786,5.36087703704834,-2.7718772888183594
1712834737608682000,11.211681884765625,-0.4363104999065399,4.191070079803467,-2.5800657272338867
1712834737628682000,11.231681884765624,-0.9201157689094543,2.374356746673584,-1.745012879371643
1712834737648682000,11.251681884765626,-1.2292135953903198,0.12454015016555786,-0.9710466861724854
1712834737668682000,11.271681884765625,-1.4869986772537231,-1.6555211544036865,-0.4835762083530426
1712834737688682000,11.291681884765625,-1.4821118116378784,-1.9395735263824463,-0.19402606785297394
1712834737708682000,11.311681884765624,-1.4527902603149414,-0.9408088326454163,0.0771980956196785
1712834737728682000,11.331681884765626,-1.7215709686279297,0.08483391255140305,0.6715700030326843
1712834737748682000,11.351681884765625,-1.7716618776321411,0.6877579092979431,1.5481616258621216
1712834737768682000,11.371681884765625,-1.412473201751709,0.1575268805027008,2.22072434425354
1712834737788682200,11.39168212890625,-0.868803083896637,-1.6817883253097534,2.4876723289489746
1712834737808682200,11.41168212890625,-0.24327708780765533,-3.8057668209075928,2.7387380599975586
1712834737828682200,11.43168212890625,-0.05268712714314461,-5.646914482116699,2.376494884490967
1712834737848682200,11.45168212890625,-0.21151208877563477,-6.136828422546387,2.084501266479492
1712834737868682200,11.47168212890625,-0.4735732674598694,-6.152710914611816,1.4143821001052856
1712834737888682000,11.491681884765624,-1.372156023979187,-3.5650858879089355,1.2928199768066406
1712834737908682000,11.511681884765625,-1.5884023904800415,-2.332359790802002,0.923246443271637
1712834737928682200,11.53168212890625,-0.9793696999549866,-1.9725602865219116,0.3050508201122284
1712834737948682200,11.55168212890625,0.851393461227417,-1.5669456720352173,-0.06635523587465286
1712834737968682200,11.57168212890625,3.020576000213623,0.5466480255126953,-0.9802096486091614
1712834737988682200,11.59168212890625,3.0590603351593018,3.7744600772857666,-0.8012261390686035
1712834738008682200,11.61168212890625,2.4072673320770264,6.765256404876709,-1.2526555061340332
1712834738028682000,11.631681884765625,2.5269968509674072,7.42132568359375,-1.5018885135650635
1712834738048682000,11.651681884765624,2.068847894668579,6.872157573699951,-1.3626112937927246
1712834738068682000,11.671681884765626,1.1158981323242188,4.856302261352539,-1.4408020973205566
1712834738088682000,11.691681884765625,1.676672339439392,2.816012382507324,-2.2856285572052
1712834738108682000,11.711681884765625,1.410946011543274,3.108616828918457,-3.4865896701812744
1712834738128682000,11.731681884765624,-0.0025961773935705423,2.108630418777466,-3.0938034057617188
1712834738148682000,11.751681884765626,-0.774118959903717,1.7873153686523438,-1.5654186010360718
1712834738168682000,11.771681884765625,-1.2066116333007812,1.1715631484985352,-0.16714800894260406
1712834738188682000,11.791681884765625,-1.0367910861968994,-0.7153995633125305,0.017333300784230232
1712834738208682000,11.811681884765624,-0.907898485660553,-1.5021940469741821,-0.08162686973810196
1712834738228682000,11.831681884765626,-1.2353222370147705,-1.3158800601959229,0.072311170399189
1712834738248682000,11.851681884765625,-1.5462526082992554,-0.5993351340293884,0.5487860441207886
1712834738268682000,11.871681884765625,-1.6360498666763306,0.06284276396036148,1.179809808731079
1712834738288682200,11.89168212890625,-1.638493299484253,0.09277515858411789,1.6758323907852173
1712834738308682200,11.91168212890625,-1.43751859664917,-0.15218180418014526,2.2054526805877686
1712834738328682200,11.93168212890625,-1.0832167863845825,-1.0403798818588257,2.7533986568450928
1712834738348682200,11.95168212890625,-0.7209737300872803,-3.15336275100708,3.3160057067871094
1712834738368682200,11.97168212890625,-0.5615378618240356,-4.7208428382873535,3.373426914215088
1712834738388682000,11.991681884765624,-0.08017606288194656,-5.640195369720459,3.2390365600585938
1712834738408682000,12.011681884765625,0.1739438772201538,-5.764200687408447,3.0172924995422363
1712834738428682200,12.03168212890625,-0.5132794976234436,-4.934645652770996,2.9262735843658447
1712834738448682200,12.05168212890625,-1.6348280906677246,-3.4368042945861816,2.5463154315948486
1712834738468682200,12.07168212890625,-2.104583501815796,-2.2022454738616943,1.4406492710113525
1712834738488682200,12.09168212890625,-0.5090034604072571,-0.2621375620365143,-0.7786241173744202
1712834738508682200,12.11168212890625,1.21974515914917,1.9656879901885986,-0.7615199089050293
1712834738528682000,12.131681884765625,2.5050055980682373,2.885651111602783,-0.02054034359753132
1712834738548682000,12.151681884765624,2.2936463356018066,4.319962501525879,0.3508657217025757
1712834738568682000,12.171681884765626,1.7047722339630127,3.6791651248931885,0.1932624876499176
1712834738588682000,12.191681884765625,1.5624406337738037,3.6938257217407227,-0.6827182769775391
1712834738608682000,12.211681884765625,1.049924612045288,3.7152061462402344,-1.0205267667770386
1712834738628682000,12.231681884765624,0.8110763430595398,4.831256866455078,-1.0693960189819336
1712834738648682000,12.251681884765626,0.19654589891433716,6.116517543792725,-2.139631986618042
1712834738668682000,12.271681884765625,-0.8993463516235352,5.1226396560668945,-2.3864214420318604
1712834738688682000,12.291681884765625,-1.6391041278839111,3.3798410892486572,-1.385824203491211
1712834738708682000,12.311681884765624,-2.0227274894714355,0.666377604007721,-0.26855164766311646
1712834738728682000,12.331681884765626,-2.5608997344970703,-1.9597320556640625,-0.07612907886505127
1712834738748682000,12.351681884765625,-2.5279130935668945,-2.9584968090057373,0.1584431678056717
1712834738768682000,12.371681884765625,-2.325105905532837,-2.8613691329956055,0.4901430010795593
1712834738788682200,12.39168212890625,-2.297006130218506,-2.5492169857025146,0.933020293712616
1712834738808682200,12.41168212890625,-2.0642664432525635,-2.3250293731689453,1.2616658210754395
1712834738828682200,12.43168212890625,-1.6354389190673828,-2.667114019393921,1.3765084743499756
1712834738848682200,12.45168212890625,-1.412473201751709,-3.476510524749756,1.730810284614563
1712834738868682200,12.47168212890625,-0.44852781295776367,-4.347604274749756,2.2592086791992188
1712834738888682000,12.491681884765624,0.7481572031974792,-5.0531535148620605,2.254321813583374
1712834738908682000,12.511681884765625,1.3339769840240479,-4.945030689239502,2.2439370155334473
1712834738928682200,12.53168212890625,0.9747881889343262,-4.46000337600708,2.606180191040039
1712834738948682200,12.55168212890625,0.3669773042201996,-3.1405346393585205,2.748511791229248
1712834738968682200,12.57168212890625,-0.5138903856277466,-1.6268105506896973,2.2476022243499756
1712834738988682200,12.59168212890625,-0.755182147026062,-1.0874165296554565,0.8548295497894287
1712834739008682200,12.61168212890625,0.6253733038902283,1.0781008005142212,-0.7792350053787231
1712834739028682000,12.631681884765625,1.9112446308135986,3.8838047981262207,-1.0449613332748413
1712834739048682000,12.651681884765624,3.4133622646331787,4.551480770111084,-0.5916993618011475
1712834739068682000,12.671681884765626,2.4750733375549316,6.116517543792725,-0.7822893261909485
1712834739088682000,12.691681884765625,1.9100228548049927,5.910655975341797,-1.299692153930664
1712834739108682000,12.711681884765625,1.6100881099700928,5.061553001403809,-1.824425458908081
1712834739128682000,12.731681884765624,1.4146112203598022,3.8135554790496826,-2.190333604812622
1712834739148682000,12.751681884765626,1.5771013498306274,3.5392768383026123,-2.170785903930664
1712834739168682000,12.771681884765625,0.8177958726882935,4.803768157958984,-3.02721905708313
1712834739188682000,12.791681884765625,-0.22189679741859436,3.555159330368042,-2.664975881576538
1712834739208682000,12.811681884765624,-0.7350236177444458,2.245464324951172,-1.822592854499817
1712834739228682000,12.831681884765626,-1.0025825500488281,1.4513394832611084,-1.2660945653915405
1712834739248682000,12.851681884765625,-1.545030951499939,0.5454263091087341,-1.317407250404358
1712834739268682000,12.871681884765625,-1.8681786060333252,-0.012293662875890732,-1.0486265420913696
1712834739288682200,12.89168212890625,-1.7863227128982544,-0.0006872233934700489,-0.32475122809410095
1712834739308682200,12.91168212890625,-1.6281086206436157,0.16546812653541565,0.19448421895503998
1712834739328682200,12.93168212890625,-1.5053247213363647,0.31696268916130066,0.6208681464195251
1712834739348682200,12.95168212890625,-1.3483322858810425,0.05978843569755554,1.0215957164764404
1712834739368682200,12.97168212890625,-1.0893254280090332,-0.9249263405799866,1.4791338443756104
1712834739388682000,12.991681884765624,-0.6275113224983215,-2.175367593765259,1.941558837890625
1712834739408682000,13.011681884765625,-0.36850446462631226,-3.5540902614593506,2.419255495071411
1712834739428682200,13.03168212890625,-0.15714508295059204,-5.310938835144043,2.949486494064331
1712834739448682200,13.05168212890625,0.10125091671943665,-6.572986602783203,2.89939546585083
1712834739468682200,13.07168212890625,0.22281309962272644,-6.975546360015869,2.706362009048462
1712834739488682200,13.09168212890625,0.16722436249256134,-6.433098316192627,2.6416103839874268
1712834739508682200,13.11168212890625,-0.2866485118865967,-4.704960346221924,2.706362009048462
1712834739528682000,13.131681884765625,-1.3232868909835815,-2.4820218086242676,2.287919521331787
1712834739548682000,13.151681884765624,-1.735010027885437,-1.1478921175003052,0.9000335931777954
1712834739568682000,13.171681884765626,-0.38377609848976135,0.3762166202068329,-0.6582836508750916
1712834739588682000,13.191681884765625,1.028544306755066,3.2527811527252197,-1.196455955505371
1712834739608682000,13.211681884765625,2.5948028564453125,3.938171863555908,-1.3265702724456787
1712834739628682000,13.231681884765624,2.6314547061920166,5.953416347503662,-1.2441034317016602
1712834739648682000,13.251681884765626,2.2545509338378906,5.959525108337402,-1.3326789140701294
1712834739668682000,13.271681884765625,1.733482837677002,4.514217853546143,-1.6381114721298218
1712834739688682000,13.291681884765625,1.542281985282898,2.538679599761963,-2.2477550506591797
1712834739708682000,13.311681884765624,1.4158328771591187,1.968131422996521,-2.6771934032440186
1712834739728682000,13.331681884765626,0.8452847599983215,4.039575576782227,-2.8531224727630615
1712834739748682000,13.351681884765625,0.1391245573759079,3.390225648880005,-2.5208117961883545
1712834739768682000,13.371681884765625,-0.7961101531982422,2.6498570442199707,-1.7590628862380981
1712834739788682200,13.39168212890625,-1.2218831777572632,1.770211100578308,-1.3326789140701294
1712834739808682200,13.41168212890625,-1.2701416015625,0.4403574764728546,-0.9600511193275452
1712834739828682200,13.43168212890625,-1.6904168128967285,-0.10819950699806213,-0.5678756237030029
1712834739848682200,13.45168212890625,-2.191937208175659,0.19540052115917206,-0.32475122809410095
1712834739868682200,13.47168212890625,-2.426509380340576,0.7818311452865601,-0.11766792088747025
1712834739888682000,13.491681884765624,-2.568230152130127,1.6962964534759521,0.33253976702690125
1712834739908682000,13.511681884765625,-2.880993127822876,2.2894465923309326,1.0130436420440674
1712834739928682200,13.53168212890625,-3.089909076690674,2.2198078632354736,1.7454711198806763
1712834739948682200,13.55168212890625,-3.000722885131836,1.3505467176437378,2.538374185562134
1712834739968682200,13.57168212890625,-2.5718953609466553,-0.2517528533935547,3.3893094062805176
1712834739988682200,13.59168212890625,-2.236530303955078,-2.1912500858306885,4.093026161193848
1712834740008682200,13.61168212890625,-1.7722728252410889,-4.654869556427002,4.301942348480225
1712834740028682000,13.631681884765625,-1.3758212327957153,-6.651176929473877,4.042324542999268
1712834740048682000,13.651681884765624,-1.0807733535766602,-7.412926197052002,3.7521634101867676
1712834740068682000,13.671681884765626,-0.622013509273529,-6.915681838989258,3.594560146331787
1712834740088682000,13.691681884765625,-0.1137736514210701,-6.298097133636475,3.6874117851257324
1712834740108682000,13.711681884765625,0.6876815557479858,-5.839337348937988,3.7851500511169434
1712834740128682000,13.731681884765624,1.0566442012786865,-4.427016735076904,3.6324338912963867
1712834740148682000,13.751681884765626,0.28756481409072876,-2.9139034748077393,3.4363460540771484
1712834740168682000,13.771681884765625,-0.8675813674926758,-1.544954538345337,2.6122889518737793
1712834740188682000,13.791681884765625,-0.7118107080459595,-1.4759267568588257,1.1327732801437378
1712834740208682000,13.811681884765624,0.5624541640281677,0.5588653683662415,-0.6112470626831055
1712834740228682000,13.831681884765626,3.1696269512176514,3.728645086288452,-0.8940776586532593
1712834740248682000,13.851681884765625,3.4017558097839355,7.056027889251709,-0.4982369542121887
1712834740268682000,13.871681884765625,2.224618434906006,8.993692398071289,-0.38522690534591675
1712834740288682200,13.89168212890625,1.856266736984253,8.187350273132324,-1.225777506828308
1712834740308682200,13.91168212890625,1.7957911491394043,5.728618144989014,-2.4395666122436523
1712834740328682200,13.93168212890625,1.288162112236023,3.454977512359619,-2.4456753730773926
1712834740348682200,13.95168212890625,1.1604912281036377,2.204536199569702,-1.8665751218795776
1712834740368682200,13.97168212890625,0.792750358581543,2.974837303161621,-3.0791425704956055
1712834740388682000,13.991681884765624,-0.5218316316604614,2.734767436981201,-2.9649107456207275
1712834740408682000,14.011681884765625,-1.1595749855041504,1.9375882148742676,-2.0803780555725098
1712834740428682200,14.03168212890625,-1.3703234195709229,1.9046014547348022,-1.33573317527771
1712834740448682200,14.05168212890625,-1.9243782758712769,1.0707703828811646,-1.1145999431610107
1712834740468682200,14.07168212890625,-2.2011001110076904,0.22533291578292847,-0.7810675501823425
1712834740488682200,14.09168212890625,-2.171778678894043,0.026190847158432007,-0.2716059684753418
1712834740508682200,14.11168212890625,-2.2536346912384033,0.08849909901618958,0.32826370000839233
1712834740528682000,14.131681884765625,-2.40635085105896,0.14042264223098755,0.8975901007652283
1712834740548682000,14.151681884765624,-2.437505006790161,-0.20227275788784027,1.4149929285049438
1712834740568682000,14.171681884765626,-2.2120957374572754,-1.1729376316070557,1.85787034034729
1712834740588682000,14.191681884765625,-1.9384281635284424,-2.542497396469116,2.12298583984375
1712834740608682000,14.211681884765625,-1.733788251876831,-3.8998401165008545,2.3147974014282227
1712834740628682000,14.231681884765624,-1.694692850112915,-4.850346565246582,2.546926259994507
1712834740648682000,14.251681884765626,-1.3055717945098877,-5.508859157562256,3.0203468799591064
1712834740668682000,14.271681884765625,-0.5279402732849121,-5.751372814178467,2.962925434112549
1712834740688682000,14.291681884765625,0.20265454053878784,-5.717164039611816,2.622673511505127
1712834740708682000,14.311681884765624,0.5795583724975586,-5.4770941734313965,3.0087404251098633
1712834740728682000,14.331681884765626,0.7707592248916626,-4.406858444213867,3.228040933609009
1712834740748682000,14.351681884765625,0.5539020895957947,-2.7685177326202393,3.404581069946289
1712834740768682000,14.371681884765625,-0.5041165351867676,-1.3250430822372437,2.941545248031616
1712834740788682200,14.39168212890625,-1.1271990537643433,-0.6243806481361389,1.6697237491607666
1712834740808682200,14.41168212890625,0.060322944074869156,-0.3983604907989502,-0.3986659348011017
1712834740828682200,14.43168212890625,1.032820463180542,3.1159472465515137,-0.6454554796218872
1712834740848682200,14.45168212890625,3.202003002166748,4.285754203796387,-0.6857725977897644
1712834740868682200,14.47168212890625,2.961932897567749,6.344980716705322,-0.23984096944332123
1712834740888682000,14.491681884765624,2.0444133281707764,6.927135467529297,-0.1249983012676239
1712834740908682000,14.511681884765625,2.1684188842773438,5.674861907958984,-1.167134404182434
1712834740928682200,14.53168212890625,1.8324429988861084,4.415257453918457,-2.2001075744628906
1712834740948682200,14.55168212890625,0.9961684942245483,3.5673766136169434,-2.3479368686676025
1712834740968682200,14.57168212890625,0.9534079432487488,4.155028820037842,-2.47499680519104
1712834740988682200,14.59168212890625,0.6534730792045593,4.965647220611572,-2.7975337505340576
1712834741008682200,14.61168212890625,-0.5303837656974792,4.671821117401123,-2.641763210296631
1712834741028682000,14.631681884765625,-0.9683741331100464,2.9620091915130615,-1.803655982017517
1712834741048682000,14.651681884765624,-0.8455902338027954,0.6926448345184326,-1.0730611085891724
1712834741068682000,14.671681884765626,-1.2909109592437744,-1.3268756866455078,-0.44020476937294006
1712834741088682000,14.691681884765625,-1.8070920705795288,-1.6659058332443237,-0.17325665056705475
1712834741108682000,14.711681884765625,-1.400255799293518,-1.2999975681304932,-0.10361801832914352
1712834741128682000,14.731681884765624,-1.3868168592453003,-0.7453319430351257,0.17676913738250732
1712834741148682000,14.751681884765626,-1.3037391901016235,-0.5132031440734863,0.3245985209941864
1712834741168682000,14.771681884765625,-1.1565206050872803,-1.0226647853851318,0.4760931134223938
1712834741188682000,14.791681884765625,-0.9054549932479858,-1.870545744895935,1.0038806200027466
1712834741208682000,14.811681884765624,-0.7728972434997559,-2.8106672763824463,1.873141884803772
1712834741228682000,14.831681884765626,-0.8150469660758972,-3.9022834300994873,2.711859941482544
1712834741248682000,14.851681884765625,-0.19746218621730804,-5.0720906257629395,2.7863855361938477
1712834741268682000,14.871681884765625,0.2356412708759308,-5.492976665496826,1.997147560119629
1712834741288682200,14.89168212890625,0.02367102913558483,-5.4160075187683105,2.0851120948791504
1712834741308682200,14.91168212890625,0.031612277030944824,-4.621272087097168,2.491948366165161
1712834741328682200,14.93168212890625,0.3449861407279968,-3.5962400436401367,2.8053221702575684
1712834741348682200,14.95168212890625,-0.14309518039226532,-1.8186222314834595,2.672764539718628
1712834741368682200,14.97168212890625,-1.5401439666748047,-0.7783187031745911,1.8358790874481201
1712834741388682000,14.991681884765624,-1.4033101797103882,-0.7257842421531677,0.8084037899971008
1712834741408682000,15.011681884765625,-0.5242751240730286,-0.3311653137207031,-0.7138723731040955
1712834741428682200,15.03168212890625,0.7444919943809509,2.980335235595703,-1.407204508781433
1712834741448682200,15.05168212890625,3.208111524581909,3.686495304107666,-1.0461831092834473
1712834741468682200,15.07168212890625,3.165350914001465,5.527032375335693,-0.7260897159576416
1712834741488682200,15.09168212890625,2.2405009269714355,6.662020206451416,-0.8427649736404419
1712834741508682200,15.11168212890625,1.7988454103469849,5.93203592300415,-1.4346933364868164
1712834741528682000,15.131681884765625,1.8752036094665527,3.7775142192840576,-1.9215530157089233
1712834741548682000,15.151681884765624,1.6100881099700928,3.1049516201019287,-2.3228914737701416
1712834741568682000,15.171681884765626,0.508698046207428,4.569195747375488,-2.8445703983306885
1712834741588682000,15.191681884765625,-0.4784601926803589,4.654716968536377,-3.1151835918426514
1712834741608682000,15.211681884765625,-1.0850493907928467,3.49895977973938,-2.40230393409729
1712834741628682000,15.231681884765624,-1.5364787578582764,2.586327075958252,-1.2868640422821045
1712834741648682000,15.251681884765626,-2.0648772716522217,0.5936846733093262,-0.8671995997428894
1712834741668682000,15.271681884765625,-2.270128011703491,-0.7074583172798157,-0.5886450409889221
1712834741688682000,15.291681884765625,-2.7172813415527344,-0.8552877306938171,-0.180587038397789
1712834741708682000,15.311681884765624,-2.694068431854248,-0.720897376537323,0.16088663041591644
1712834741728682000,15.331681884765626,-2.3287711143493652,0.07322747260332108,0.5219079852104187
1712834741748682000,15.351681884765625,-2.362368583679199,0.5613088011741638,0.981278657913208
1712834741768682000,15.371681884765625,-2.5089762210845947,0.48922669887542725,1.4827990531921387
1712834741788682200,15.39168212890625,-2.355648994445801,-0.11247556656599045,2.036853790283203
1712834741808682200,15.41168212890625,-1.837024450302124,-1.165607213973999,2.670931816101074
1712834741828682200,15.43168212890625,-1.2231049537658691,-3.038520097732544,3.267136335372925
1712834741848682200,15.45168212890625,-0.8914051055908203,-4.752607822418213,3.2683582305908203
1712834741868682200,15.47168212890625,-0.7851145267486572,-5.915084362030029,3.074713945388794
1712834741888682000,15.491681884765624,-0.535881519317627,-6.037257671356201,2.9702558517456055
1712834741908682000,15.511681884765625,-0.0074830991216003895,-5.466098785400391,3.066772699356079
1712834741928682200,15.53168212890625,0.3859141170978546,-4.823468208312988,3.423517942428589
1712834741948682200,15.55168212890625,0.8037459254264832,-3.594407558441162,3.678248643875122
1712834741968682200,15.57168212890625,1.0212140083312988,-1.9462929964065552,3.3893094062805176
1712834741988682200,15.59168212890625,0.06398813426494598,-0.7673230767250061,2.7912724018096924
1712834742008682200,15.61168212890625,-0.6769914031028748,-0.3073415756225586,1.5280030965805054
1712834742028681700,15.631681640625,-0.5786421298980713,-0.8455138802528381,0.5310709476470947
1712834742048682000,15.651681884765624,0.04505131021142006,0.7592291235923767,-0.8476518988609314
1712834742068681700,15.671681640625,2.3993258476257324,2.4586563110351562,-1.3919328451156616
1712834742088682000,15.691681884765625,3.7249035835266113,4.747568130493164,-1.1701887845993042
1712834742108681700,15.711681640625,2.001041889190674,7.938117504119873,-1.2502120733261108
1712834742128682000,15.731681884765624,1.049924612045288,8.101829528808594,-1.8170950412750244
1712834742148681700,15.751681640625,1.1769846677780151,5.574679851531982,-1.9692004919052124
1712834742168682000,15.771681884765625,1.2069170475006104,3.2436180114746094,-1.9154443740844727
1712834742188681700,15.791681640625,0.7273877859115601,2.8367817401885986,-2.5159249305725098
1712834742208682000,15.811681884765624,-0.21700987219810486,2.977891683578491,-3.1292335987091064
1712834742228681700,15.831681640625,-1.1296426057815552,1.9937877655029297,-2.363208532333374
1712834742248682000,15.851681884765625,-1.3880385160446167,1.5570191144943237,-0.9343947768211365
1712834742268681700,15.871681640625,-1.4802792072296143,0.3652210533618927,-0.15859588980674744
1712834742288682200,15.89168212890625,-1.7160731554031372,-0.9585239291191101,-0.06269004940986633
1712834742308682200,15.91168212890625,-1.7411186695098877,-1.2218068838119507,-0.27954721450805664
1712834742328682200,15.93168212890625,-1.6659822463989258,-1.059316635131836,-0.04680754989385605
1712834742348682200,15.95168212890625,-1.735010027885437,-0.5553528666496277,0.6544657349586487
1712834742368682200,15.97168212890625,-1.7160731554031372,-0.35987597703933716,1.259222388267517
1712834742388681700,15.991681640625,-1.4582880735397339,-0.8125271201133728,1.4327080249786377
1712834742408681700,16.011681640625,-1.0832167863845825,-1.3885730504989624,1.8010598421096802
1712834742428682200,16.03168212890625,-0.7020368576049805,-2.477745771408081,2.4088706970214844
1712834742448682200,16.05168212890625,-0.3068070709705353,-4.047058582305908,2.567084789276123
1712834742468682200,16.07168212890625,-0.11499538272619247,-5.429446697235107,2.4479660987854004
1712834742488682200,16.09168212890625,0.09941831976175308,-6.176534652709961,2.683760166168213
1712834742508682200,16.11168212890625,0.6772968173027039,-5.961510181427002,2.9672014713287354
1712834742528681700,16.131681640625,1.0010554790496826,-4.836296558380127,2.7466793060302734
1712834742548681700,16.151681640625,0.31932979822158813,-3.0910544395446777,2.8230373859405518
1712834742568681700,16.171681640625,-0.6879869699478149,-1.6017650365829468,2.4027621746063232
1712834742588681700,16.191681640625,-0.9976956844329834,-0.6036112308502197,1.1999684572219849
1712834742608681700,16.211681640625,-0.13271047174930573,-0.5510768294334412,-0.5031238794326782
1712834742628681700,16.231681640625,1.0664180517196655,2.4702627658843994,-1.4853951930999756
1712834742648681700,16.251681640625,3.335782289505005,4.319962501525879,-1.3968197107315063
1712834742668681700,16.271681640625,3.3767104148864746,7.111005783081055,-1.0938305854797363
1712834742688681700,16.291681640625,1.7799086570739746,8.59540843963623,-1.0663416385650635
1712834742708681700,16.311681640625,1.1006264686584473,7.516620635986328,-1.5806901454925537
1712834742728681700,16.331681640625,1.3779592514038086,3.996204137802124,-2.0296761989593506
1712834742748681700,16.351681640625,1.040150761604309,1.988900899887085,-2.4145212173461914
1712834742768681700,16.371681640625,0.23319780826568604,2.9949958324432373,-2.7193429470062256
1712834742788682200,16.39168212890625,-0.4509712755680084,2.5429556369781494,-2.8329639434814453
1712834742808682200,16.41168212890625,-1.0044151544570923,2.402456760406494,-2.0211241245269775
1712834742828682200,16.43168212890625,-1.3843733072280884,2.176436424255371,-0.8739190697669983
1712834742848682200,16.45168212890625,-1.5315918922424316,0.8404742479324341,-0.38033998012542725
1712834742868682200,16.47168212890625,-1.6836973428726196,-0.37575846910476685,-0.3381902575492859
1712834742888681700,16.491681640625,-2.0276143550872803,-0.872391939163208,0.08269587904214859
1712834742908681700,16.511681640625,-2.020895004272461,-0.9933432340621948,0.716163158416748
1712834742928682200,16.53168212890625,-1.7594445943832397,-1.0006736516952515,1.0729084014892578
1712834742948682200,16.55168212890625,-1.5639677047729492,-1.136285662651062,1.1315515041351318
1712834742968682200,16.57168212890625,-1.3672691583633423,-1.6536885499954224,1.3557389974594116
1712834742988682200,16.59168212890625,-0.9720393419265747,-2.3787856101989746,1.9354501962661743
1712834743008682200,16.61168212890625,-0.57436603307724,-3.443523645401001,2.29036283493042
1712834743028681700,16.631681640625,-0.1840231567621231,-4.61149787902832,2.6636016368865967
1712834743048681700,16.651681640625,0.43417248129844666,-6.027483940124512,2.5157721042633057
1712834743068681700,16.671681640625,0.6858489513397217,-6.178367614746094,2.4070382118225098
1712834743088681700,16.691681640625,1.0487029552459717,-5.353699207305908,2.6886470317840576
1712834743108681700,16.711681640625,0.9668469429016113,-3.5290448665618896,2.8529698848724365
1712834743128681700,16.731681640625,0.20326541364192963,-1.5852717161178589,2.4956135749816895
1712834743148681700,16.751681640625,-0.8700248003005981,-0.002519819187000394,1.7198147773742676
1712834743168681700,16.771681640625,-0.4332561790943146,0.5478697419166565,0.1370628923177719
1712834743188681700,16.791681640625,0.944855809211731,2.4195609092712402,-1.101161003112793
1712834743208681700,16.811681640625,2.3571763038635254,4.315075874328613,-1.762727975845337
1712834743228681700,16.831681640625,2.6247353553771973,6.409121990203857,-1.6637678146362305
1712834743248681700,16.851681640625,1.4463762044906616,8.61495590209961,-2.0327305793762207
1712834743268681700,16.871681640625,0.8428413271903992,8.369388580322266,-2.1500165462493896
1712834743288682200,16.89168212890625,0.8978192210197449,6.31077241897583,-2.1683425903320312
1712834743308682200,16.91168212890625,1.1061242818832397,2.740265130996704,-2.3479368686676025
1712834743328682200,16.93168212890625,0.7646505832672119,1.199052095413208,-2.7578275203704834
1712834743348682200,16.95168212890625,0.18738290667533875,2.103743553161621,-3.0681469440460205
1712834743368682200,16.97168212890625,-0.40454551577568054,0.6902013421058655,-1.8348101377487183
1712834743388681700,16.991681640625,-0.9634872078895569,0.572915256023407,-0.7315874695777893
1712834743408681700,17.011681640625,-1.1388055086135864,-0.03000875562429428,-0.4542546570301056
1712834743428682200,17.03168212890625,-1.1895073652267456,-0.44539710879325867,-0.644844651222229
1712834743448682200,17.05168212890625,-1.7246253490447998,-0.6152176856994629,-0.3375793993473053
1712834743468682200,17.07168212890625,-2.3153319358825684,0.13675746321678162,0.14378240704536438
1712834743488682200,17.09168212890625,-2.5334107875823975,0.772057294845581,0.6923394203186035
1712834743508682200,17.11168212890625,-2.6806294918060303,1.2228758335113525,1.1278862953186035
1712834743528681700,17.131681640625,-2.9750664234161377,0.7512878775596619,2.0020344257354736
1712834743548681700,17.151681640625,-2.8620564937591553,-0.3519347310066223,2.812041759490967
1712834743568681700,17.171681640625,-2.158339738845825,-2.256612539291382,3.6397643089294434
1712834743588681700,17.191681640625,-1.4888312816619873,-5.039103984832764,3.730783224105835
1712834743608681700,17.211681640625,-1.2402092218399048,-7.450799942016602,3.091207265853882
1712834743628681700,17.231681640625,-0.6378960609436035,-7.990193843841553,2.581134796142578
1712834743648681700,17.251681640625,-0.03375030308961868,-6.8503193855285645,2.575636863708496
1712834743668681700,17.271681640625,0.21853704750537872,-5.693340301513672,3.0484466552734375
1712834743688681700,17.291681640625,0.7353290319442749,-4.2736897468566895,3.4058027267456055
1712834743708681700,17.311681640625,0.9582948684692383,-2.8167760372161865,3.3129513263702393
1712834743728681700,17.331681640625,0.21120665967464447,-1.0318278074264526,2.8077657222747803
1712834743748681700,17.351681640625,-0.22250767052173615,-0.2303725630044937,1.8389334678649902
1712834743768681700,17.371681640625,-0.3147483170032501,-0.0037415495608001947,0.6153703927993774
1712834743788682200,17.39168212890625,0.5258022546768188,2.234468698501587,-0.919734001159668
1712834743808682200,17.41168212890625,2.713921546936035,4.4219770431518555,-1.613676905632019
1712834743828682200,17.43168212890625,3.59601092338562,6.832451343536377,-1.1414780616760254
1712834743848682200,17.45168212890625,2.163532018661499,8.654662132263184,-1.1543062925338745
1712834743868682200,17.47168212890625,1.3003793954849243,8.472624778747559,-1.5422056913375854
1712834743888681700,17.491681640625,1.2857186794281006,6.74021053314209,-1.6588809490203857
1712834743908681700,17.511681640625,1.5215126276016235,4.571639060974121,-2.2447006702423096
1712834743928682200,17.53168212890625,0.4231768846511841,5.058498859405518,-2.8641180992126465
1712834743948682200,17.55168212890625,-0.5737552046775818,4.078670978546143,-2.6826910972595215
1712834743968682200,17.57168212890625,-0.6910412907600403,1.7726545333862305,-1.6197855472564697
1712834743988682200,17.59168212890625,-0.794277548789978,-0.4032474160194397,-0.4793001413345337
1712834744008682200,17.61168212890625,-1.3464996814727783,-1.1204031705856323,-0.5293911099433899
1712834744028681700,17.631681640625,-1.867567777633667,-1.6671276092529297,-0.5226715803146362
1712834744048681700,17.651681640625,-2.0697641372680664,-1.0483211278915405,-0.018707748502492905
1712834744068681700,17.671681640625,-2.121076822280884,-0.16378824412822723,0.4205043613910675
1712834744088681700,17.691681640625,-2.1846067905426025,0.6175084114074707,0.7864126563072205
1712834744108681700,17.711681640625,-2.133294105529785,0.695699155330658,1.2812135219573975
1712834744128681700,17.731681640625,-1.9469802379608154,-0.2908482253551483,1.882915735244751
1712834744148681700,17.751681640625,-1.7050776481628418,-1.965229868888855,2.5127177238464355
1712834744168681700,17.771681640625,-1.3489432334899902,-4.320115566253662,3.105867862701416
1712834744188681700,17.791681640625,-1.162629246711731,-6.350020408630371,3.0734920501708984
1712834744208681700,17.811681640625,-1.0942124128341675,-7.210118770599365,2.3948209285736084
1712834744228681700,17.831681640625,-0.8388707041740417,-6.874143123626709,2.105881690979004
1712834744248681700,17.851681640625,-0.31230485439300537,-5.623090744018555,2.4339160919189453
1712834744268681700,17.871681640625,0.2496911734342575,-4.241313934326172,2.91833233833313
1712834744288682200,17.89168212890625,0.5447390675544739,-3.208340644836426,2.865187168121338
1712834744308682200,17.91168212890625,0.06215553730726242,-1.9206366539001465,2.6098453998565674
1712834744328682200,17.93168212890625,-0.2793181240558624,-0.700738787651062,1.9214003086090088
1712834744348682200,17.95168212890625,0.016340645030140877,0.06956227868795395,1.4687491655349731
1712834744368682200,17.97168212890625,0.547182559967041,1.7439439296722412,0.1786017268896103
1712834744388681700,17.991681640625,2.230727195739746,4.4244208335876465,-1.6827046871185303
1712834744408681700,18.011681640625,3.17634654045105,6.851999282836914,-1.747456431388855
1712834744428682200,18.03168212890625,2.4634668827056885,8.638169288635254,-1.7865517139434814
1712834744448682200,18.05168212890625,1.404226541519165,8.126263618469238,-1.8732945919036865
1712834744468682200,18.07168212890625,1.3406964540481567,4.503222465515137,-2.3595433235168457
1712834744488682200,18.09168212890625,1.497688889503479,1.2699124813079834,-2.5018749237060547
1712834744508682200,18.11168212890625,1.0346530675888062,0.8789587020874023,-2.4230732917785645
1712834744528681700,18.131681640625,0.34987306594848633,2.8441121578216553,-2.9844584465026855
1712834744548681700,18.151681640625,-0.6018549799919128,2.572277307510376,-2.192166328430176
1712834744568681700,18.171681640625,-0.9976956844329834,2.2411882877349854,-1.3119094371795654
1712834744588681700,18.191681640625,-1.1546880006790161,2.028607130050659,-0.9343947768211365
1712834744608681700,18.211681640625,-1.6018413305282593,0.38904479146003723,-0.948444664478302
1712834744628681700,18.231681640625,-1.9763017892837524,-0.5223661661148071,-0.41515928506851196
1712834744648681700,18.251681640625,-2.177276372909546,-0.7838164567947388,0.2189188301563263
1712834744668681700,18.271681640625,-2.0929770469665527,-0.8253552913665771,0.506636381149292
1712834744688681700,18.291681640625,-1.8944458961486816,-0.5571854710578918,0.6941719651222229
1712834744708681700,18.311681640625,-1.8694003820419312,-0.29878947138786316,1.1260536909103394
1712834744728681700,18.331681640625,-1.7899879217147827,-0.4692208766937256,1.6410131454467773
1712834744748681700,18.351681640625,-1.289689302444458,-1.3702471256256104,2.003256320953369
1712834744768681700,18.371681640625,-0.7081455588340759,-2.3280837535858154,2.0631210803985596
1712834744788682200,18.39168212890625,-0.5468770861625671,-3.3946545124053955,2.360001564025879
1712834744808682000,18.411681884765624,-0.1638645976781845,-4.471610069274902,2.538985013961792
1712834744828682200,18.43168212890625,0.34804046154022217,-4.910211086273193,2.5988497734069824
1712834744848682000,18.451681884765627,0.7530441284179688,-5.118516445159912,2.717357635498047
1712834744868682200,18.47168212890625,1.1354458332061768,-5.065981864929199,3.055166244506836
1712834744888681700,18.491681640625,1.5056301355361938,-3.968256950378418,2.966590642929077
1712834744908681700,18.511681640625,0.7402159571647644,-2.64206862449646,3.052722692489624
1712834744928682000,18.531681884765625,-0.5835290551185608,-0.6311001777648926,1.8169423341751099
1712834744948682000,18.551681884765625,-0.44852781295776367,-0.2413681298494339,0.82917320728302
1712834744968682000,18.571681884765624,0.4066835343837738,1.516091227531433,-0.748691737651825
1712834744988682000,18.591681884765624,2.7285823822021484,3.845320463180542,-1.376050353050232
1712834745008682000,18.611681884765623,3.9454259872436523,6.148282527923584,-0.9527207016944885
1712834745028681700,18.631681640625,2.3522894382476807,8.512941360473633,-1.041296124458313
1712834745048681700,18.651681640625,1.4677565097808838,8.297917366027832,-0.9893726110458374
1712834745068681700,18.671681640625,2.054797887802124,5.308342456817627,-1.6674330234527588
1712834745088681700,18.691681640625,1.7218763828277588,3.111060380935669,-1.8910096883773804
1712834745108681700,18.711681640625,0.508698046207428,2.505692958831787,-2.195831537246704
1712834745128681700,18.731681640625,-0.20906862616539001,2.7616453170776367,-2.625880718231201
1712834745148681700,18.751681640625,-0.4375322461128235,2.655965805053711,-2.642374038696289
1712834745168681700,18.771681640625,-1.2573133707046509,2.6993372440338135,-2.2306509017944336
1712834745188681700,18.791681640625,-1.6354389190673828,1.912542700767517,-1.2831988334655762
1712834745208681700,18.811681640625,-1.6989690065383911,0.4654029607772827,-0.7456374168395996
1712834745228681700,18.831681640625,-1.9964603185653687,-0.47044259309768677,-0.2819906771183014
1712834745248681700,18.851681640625,-1.8779524564743042,-0.5370268821716309,0.008170322515070438
1712834745268681700,18.871681640625,-1.6036739349365234,-0.6060546636581421,0.24457517266273499
1712834745288682000,18.891681884765624,-1.66781485080719,-0.6084981560707092,0.7271587252616882
1712834745308682000,18.911681884765624,-1.7490599155426025,-0.7819838523864746,1.2799917459487915
1712834745328682000,18.931681884765624,-1.5163202285766602,-1.0556515455245972,1.732032060623169
1712834745348682000,18.951681884765627,-1.097266674041748,-1.736155390739441,2.287919521331787
1712834745368682000,18.971681884765626,-0.5761986374855042,-3.0256919860839844,3.030731439590454
1712834745388681700,18.991681640625,0.12507465481758118,-4.82285737991333,2.812041759490967
1712834745408681700,19.011681640625,0.11285735666751862,-6.721426486968994,2.424753189086914
1712834745428682000,19.031681884765625,0.06276640295982361,-6.452645778656006,2.6190083026885986
1712834745448682000,19.051681884765625,0.37369680404663086,-5.240078449249268,2.868241310119629
1712834745468682000,19.071681884765624,0.5984952449798584,-3.546760082244873,3.0240120887756348
1712834745488682000,19.091681884765624,-0.22311852872371674,-1.4423291683197021,2.251878261566162
1712834745508682000,19.111681884765623,-0.661719799041748,-0.7251734137535095,1.2537245750427246
1712834745528681700,19.131681640625,-0.34345898032188416,-0.4227951169013977,0.19631682336330414
1712834745548681700,19.151681640625,0.5881105065345764,1.740278720855713,-0.8378780484199524
1712834745568681700,19.171681640625,2.906344175338745,3.610748052597046,-1.2740358114242554
1712834745588681700,19.191681640625,3.6497671604156494,5.158680438995361,-0.8366563320159912
1712834745608681700,19.211681640625,2.699260711669922,7.02426290512085,-0.919123113155365
1712834745628681700,19.231681640625,1.9698877334594727,6.85688591003418,-1.167134404182434
1712834745648681700,19.251681640625,2.1281018257141113,5.116530895233154,-1.5904639959335327
1712834745668681700,19.271681640625,2.5471553802490234,2.6797895431518555,-1.953928828239441
1712834745688681700,19.291681640625,1.8159496784210205,3.6712238788604736,-2.3668737411499023
1712834745708681700,19.311681640625,0.19715675711631775,5.581399440765381,-2.7083473205566406
1712834745728681700,19.331681640625,-0.41920626163482666,4.280867099761963,-2.7639360427856445
1712834745748681700,19.351681640625,-0.6849326491355896,3.1874184608459473,-1.9099465608596802
1712834745768681700,19.371681640625,-1.2573133707046509,2.117182493209839,-1.013196349143982
1712834745788682000,19.391681884765624,-1.9536998271942139,0.7366271018981934,-0.60513836145401
1712834745808682000,19.411681884765624,-2.4326181411743164,-0.4075234830379486,-0.22701279819011688
1712834745828682000,19.431681884765624,-2.6598598957061768,-0.34582608938217163,0.1688278764486313
1712834745848682000,19.451681884765627,-2.749657154083252,0.1025490015745163,0.42233696579933167
1712834745868682000,19.471681884765626,-2.613434314727783,0.9540951251983643,0.6636287569999695
1712834745888681700,19.491681640625,-2.6641359329223633,1.2332605123519897,1.1065059900283813
1712834745908681700,19.511681640625,-2.7197248935699463,0.6847035884857178,1.8028924465179443
1712834745928682000,19.531681884765625,-2.5083653926849365,-0.4386776089668274,2.4895050525665283
1712834745948682000,19.551681884765625,-1.9909625053405762,-1.907808542251587,3.0765464305877686
1712834745968682000,19.571681884765624,-1.40269935131073,-3.753232479095459,3.6367099285125732
1712834745988682000,19.591681884765624,-0.7301366925239563,-5.390351295471191,3.537749767303467
1712834746008682000,19.611681884765623,-0.2047925740480423,-6.5351128578186035,2.8004353046417236
1712834746028681700,19.631681640625,0.22220222651958466,-6.797173976898193,2.5854108333587646
1712834746048681700,19.651681640625,0.5728389024734497,-5.807572364807129,2.8450286388397217
1712834746068681700,19.671681640625,0.44455718994140625,-4.328056812286377,3.0392837524414062
1712834746088681700,19.691681640625,-0.43936482071876526,-3.3170745372772217,2.608623743057251
1712834746108681700,19.711681640625,-1.1241447925567627,-2.6713900566101074,1.9525543451309204
1712834746128681700,19.731681640625,-0.5102251768112183,-2.2816579341888428,0.716163158416748
1712834746148681700,19.751681640625,0.6394231915473938,0.552756667137146,-0.8971319794654846
1712834746168681700,19.771681640625,2.696817398071289,3.161151170730591,-0.9362273216247559
1712834746188681700,19.791681640625,3.5245397090911865,5.004742622375488,-0.6802747845649719
1712834746208681700,19.811681640625,2.914896249771118,6.539236068725586,-0.8971319794654846
1712834746228681700,19.831681640625,1.9643899202346802,6.586272716522217,-0.9374490976333618
1712834746248681700,19.851681640625,1.6424639225006104,5.197165012359619,-1.2752575874328613
1712834746268681500,19.871681396484377,1.8245017528533936,3.5850918292999268,-1.5904639959335327
1712834746288681700,19.891681640625,1.2014192342758179,3.150766611099243,-2.136577606201172
1712834746308681700,19.911681640625,0.4219551682472229,4.2765913009643555,-2.6497044563293457
1712834746328681700,19.931681640625,-0.5981897711753845,3.8392117023468018,-2.4505622386932373
1712834746348681700,19.951681640625,-1.2377656698226929,2.3444244861602783,-1.0956631898880005
1712834746368682000,19.971681884765626,-1.2011138200759888,-0.08315403014421463,-0.3626248836517334
1712834746388681700,19.991681640625,-1.5083789825439453,-2.404442071914673,0.08880453556776047
1712834746408681700,20.011681640625,-1.3782646656036377,-2.9646053314208984,0.11934779584407806
1712834746428681700,20.031681640625,-0.8773552179336548,-2.182086944580078,0.04115704447031021
1712834746448681700,20.051681640625,-1.0832167863845825,-1.0306060314178467,0.5475643277168274
1712834746468681700,20.071681640625,-1.3935363292694092,-0.09781479835510254,0.9941068291664124
1712834746488681700,20.091681640625,-1.2957979440689087,0.12637275457382202,1.0930670499801636
1712834746508682000,20.111681884765623,-1.0025825500488281,-0.4527274966239929,1.39727783203125
1712834746528681700,20.131681640625,-0.5090034604072571,-1.7569247484207153,2.145587921142578
1712834746548681700,20.151681640625,-0.05513058975338936,-3.9670352935791016,2.8309786319732666
1712834746568681700,20.171681640625,0.10919216275215149,-5.810015678405762,2.549980640411377
1712834746588681700,20.191681640625,0.154396191239357,-6.659118175506592,2.1138229370117188
1712834746608681700,20.211681640625,0.3211624026298523,-6.0940680503845215,2.2256112098693848
1712834746628681700,20.231681640625,0.5642867684364319,-4.197331428527832,2.6971991062164307
1712834746648681700,20.251681640625,0.4830417037010193,-2.2755494117736816,2.776000738143921
1712834746668681700,20.271681640625,-0.5566509366035461,-0.7636579275131226,2.4455225467681885
1712834746688681700,20.291681640625,-0.8278751373291016,-0.2926807999610901,1.49196195602417
1712834746708681700,20.311681640625,-0.05390885844826698,-0.7031822800636292,0.23541219532489777
1712834746728681700,20.331681640625,1.3199270963668823,2.3004422187805176,-1.0406852960586548
1712834746748682000,20.351681884765625,3.9704713821411133,4.6846489906311035,-1.184849500656128
1712834746768682000,20.371681884765625,3.5269832611083984,7.3871169090271,-0.7493025660514832
1712834746788682000,20.391681884765624,1.8196148872375488,9.222766876220703,-0.8690321445465088
1712834746808649000,20.41164892578125,1.3791810274124146,8.184296607971191,-1.4884495735168457
1712834746828615700,20.43161572265625,1.8183931112289429,4.80254602432251,-2.305176258087158
1712834746848582100,20.45158203125,1.2014192342758179,1.885664701461792,-2.198885917663574
1712834746868549600,20.471549560546876,0.8684976696968079,0.9321039915084839,-1.8293123245239258
1712834746888516000,20.49151611328125,0.5624541640281677,1.2754102945327759,-1.897118330001831
1712834746908482800,20.51148291015625,-0.35262197256088257,2.287613868713379,-2.692464828491211
1712834746928449300,20.53144921875,-1.1577423810958862,2.1746039390563965,-1.975309133529663
1712834746948416000,20.551416015625,-1.4381295442581177,1.8044195175170898,-1.1872929334640503
1712834746968382500,20.571382568359375,-1.5639677047729492,0.7091382145881653,-0.6289620995521545
1712834746988349200,20.59134912109375,-1.8358027935028076,-0.44539710879325867,-0.382783442735672
1712834747008315600,20.611315673828123,-1.8975001573562622,-1.0532079935073853,-0.039477165788412094
1712834747028282400,20.631282470703123,-1.7967073917388916,-1.3195452690124512,0.25618159770965576
1712834747048249000,20.6512490234375,-1.799150824546814,-1.508913516998291,0.6410267353057861
1712834747068215800,20.6712158203125,-1.6427693367004395,-1.697059988975525,0.981889545917511
1712834747088182300,20.691182373046875,-1.3025174140930176,-2.125276565551758,1.2066879272460938
1712834747108148700,20.711148681640626,-0.9146180152893066,-2.7801241874694824,1.6446783542633057
1712834747128115500,20.731115478515626,-0.2750420868396759,-3.510718822479248,2.131537914276123
1712834747148082400,20.75108251953125,0.3016147017478943,-4.061108589172363,2.167578935623169
1712834747168049200,20.771049072265626,0.5813909769058228,-4.8656182289123535,2.3667209148406982
1712834747188015600,20.791015625,0.7157813310623169,-5.130733489990234,2.720412015914917
1712834747207982300,20.810982421875,0.6785185933113098,-4.742834091186523,2.8719065189361572
1712834747227949000,20.830948974609374,-0.010537425056099892,-3.892509698867798,2.7863855361938477
1712834747247915800,20.850915771484374,-1.1650726795196533,-2.309757947921753,2.1529181003570557
1712834747267882200,20.87088232421875,-1.7423404455184937,-1.8204548358917236,1.2225704193115234
1712834747287849000,20.890848876953125,-0.8425359129905701,-0.9548587203025818,-0.5165629386901855
1712834747307815700,20.910815673828125,0.42500948905944824,1.742111325263977,-1.489671230316162
1712834747327782400,20.930782470703125,2.5447118282318115,3.32852840423584,-1.3393983840942383
1712834747347748900,20.950748779296877,2.8128817081451416,5.7701568603515625,-1.4298064708709717
1712834747367715300,20.97071533203125,2.4048237800598145,7.26066780090332,-1.4719561338424683
1712834747387682000,20.99068212890625,1.9497292041778564,6.202649116516113,-1.4487433433532715
1712834747407681800,21.010681884765624,1.6003142595291138,3.597309112548828,-1.9600374698638916
1712834747427681800,21.030681884765624,1.6363552808761597,1.5057064294815063,-2.220876932144165
1712834747447681800,21.050681884765623,1.8061758279800415,2.036548376083374,-2.1359667778015137
1712834747467681500,21.070681640625,0.9405797719955444,3.976045608520508,-3.424281597137451
1712834747487681500,21.090681640625,-0.25854870676994324,3.2491159439086914,-2.5764005184173584
1712834747507681500,21.110681640625,-0.7832819819450378,2.5967118740081787,-1.4353042840957642
1712834747527681500,21.130681640625,-0.8199338912963867,2.0774762630462646,-0.7645742297172546
1712834747547681500,21.150681640625,-1.1357512474060059,0.3542254865169525,-0.9991464614868164
1712834747567681500,21.170681640625,-1.6562083959579468,-0.3928627073764801,-0.7273114323616028
1712834747587648300,21.190648193359376,-2.057546854019165,-0.14851661026477814,-0.0694095641374588
1712834747607615000,21.210614990234376,-2.1931588649749756,0.22044599056243896,0.5713880658149719
1712834747627581400,21.23058154296875,-2.188271999359131,0.491670161485672,1.039921760559082
1712834747647548200,21.250548095703124,-2.0282254219055176,0.31635183095932007,1.5469398498535156
1712834747667515000,21.270514892578124,-1.885893702507019,-0.2413681298494339,2.159637689590454
1712834747687481600,21.290481689453124,-1.915215253829956,-0.8894961476325989,2.7827203273773193
1712834747707448300,21.3104482421875,-1.8626807928085327,-1.852219820022583,3.370983600616455
1712834747727414800,21.330414794921875,-1.6183347702026367,-2.78745436668396,3.9665770530700684
1712834747747381200,21.35038134765625,-0.9799805879592896,-3.566307544708252,4.670904636383057
1712834747767348000,21.370347900390627,0.19715675711631775,-5.362251281738281,4.009337902069092
1712834747787314700,21.390314697265627,0.6033821702003479,-7.1911821365356445,3.1797826290130615
1712834747807281200,21.41028125,-0.16508632898330688,-7.69148063659668,2.9110019207000732
1712834747827247900,21.430247802734375,-1.7301230430603027,-6.4318766593933105,2.2604305744171143
1712834747847214600,21.450214599609374,-2.3794727325439453,-4.06233024597168,1.5469398498535156
1712834747867181600,21.470181640625,-0.8914051055908203,-2.700711488723755,0.8878162503242493
1712834747887148300,21.490148193359374,0.08781187981367111,-0.55779629945755,-0.20318904519081116
1712834747907115000,21.510114990234374,1.6058119535446167,2.491032123565674,-0.8409323692321777
1712834747927081500,21.53008154296875,2.7517952919006348,4.577136993408203,-1.2184470891952515
1712834747947048200,21.550048095703126,2.1287126541137695,6.888040065765381,-1.3064117431640625
1712834747967015000,21.570014892578126,1.8141170740127563,6.75242805480957,-1.3839915990829468
1712834747986981600,21.589981689453126,1.3559681177139282,5.221599578857422,-1.726686954498291
1712834748006948600,21.609948486328125,1.5135713815689087,2.711554527282715,-2.0321195125579834
1712834748026915300,21.629915283203125,1.933235764503479,1.151404619216919,-1.7877734899520874
1712834748046881800,21.6498818359375,2.0761783123016357,2.0432679653167725,-2.2721896171569824
1712834748066848500,21.6698486328125,-0.12476922571659088,4.738405227661133,-2.9111547470092773
1712834748086815200,21.689815185546873,-0.717308521270752,3.527670383453369,-1.737682580947876
1712834748106782000,21.709781982421877,-0.35262197256088257,1.6431511640548706,-0.6857725977897644
1712834748126748400,21.72974853515625,-0.6604980230331421,-0.0849866271018982,-0.17264579236507416
1712834748146715100,21.749715087890625,-1.1711814403533936,-1.5498415231704712,-0.24350616335868835
1712834748166681900,21.769681884765625,-1.0905472040176392,-1.8381699323654175,-0.25877779722213745
1712834748186681900,21.789681884765624,-1.07771897315979,-1.6384168863296509,-0.07185302674770355
1712834748206681900,21.809681884765624,-1.0514518022537231,-0.881554901599884,0.5683337450027466
1712834748226681900,21.829681884765623,-1.1455250978469849,-0.19310978055000305,0.9989937543869019
1712834748246681900,21.849681884765626,-1.0557278394699097,-0.13324497640132904,1.1944706439971924
1712834748266681900,21.869681884765626,-0.8272642493247986,-1.2126438617706299,1.636126160621643
1712834748286681900,21.889681884765626,-0.5041165351867676,-2.6274077892303467,2.1468095779418945
1712834748306681900,21.909681884765625,-0.2756529450416565,-4.076991081237793,2.276923894882202
1712834748326681900,21.929681884765625,-0.036193765699863434,-5.216254711151123,2.3624448776245117
1712834748346681900,21.949681884765624,0.31749722361564636,-5.609652042388916,2.396653413772583
1712834748366682000,21.96968212890625,0.5752823352813721,-5.344536304473877,2.435748815536499
1712834748386682000,21.98968212890625,0.5844452977180481,-4.11303186416626,2.4754550457000732
1712834748406682000,22.00968212890625,-0.48456886410713196,-2.472248077392578,2.3031909465789795
1712834748426682000,22.02968212890625,-1.2163853645324707,-1.273119568824768,1.6129133701324463
1712834748446682000,22.04968212890625,-0.4576907753944397,-0.7661013603210449,0.6263659596443176
1712834748466681900,22.069681884765625,0.7560984492301941,2.343202829360962,-0.889801561832428
1712834748486681900,22.089681884765625,2.836094617843628,4.498946189880371,-0.9722684025764465
1712834748506682000,22.10968212890625,3.0309605598449707,5.811084747314453,0.04360050708055496
1712834748526682000,22.12968212890625,1.9533942937850952,6.300998687744141,0.425391286611557
1712834748546682000,22.14968212890625,2.1562016010284424,4.666323184967041,-0.7908414006233215
1712834748566682000,22.16968212890625,1.96133553981781,2.960787534713745,-1.2667053937911987
1712834748586682000,22.18968212890625,1.268614411354065,2.1849887371063232,-1.1054370403289795
1712834748606681900,22.209681884765626,1.1403326988220215,2.9901089668273926,-1.3406201601028442
1712834748626681900,22.229681884765625,0.37369680404663086,4.665101528167725,-2.0180697441101074
1712834748646681900,22.249681884765625,-0.6195700764656067,4.743903160095215,-2.435290575027466
1712834748666681900,22.269681884765625,-1.1791226863861084,4.020638465881348,-2.0687716007232666
1712834748686681900,22.289681884765624,-1.4216361045837402,2.491032123565674,-0.9838748574256897
1712834748706681900,22.309681884765624,-1.6244434118270874,0.1837940812110901,-0.48724138736724854
1712834748726681900,22.329681884765623,-1.8211419582366943,-1.6995034217834473,-0.09017898142337799
1712834748746681900,22.349681884765626,-1.731955647468567,-2.8106672763824463,0.3038291037082672
1712834748766681900,22.369681884765626,-1.534035325050354,-2.9010753631591797,0.5420665740966797
1712834748786681900,22.389681884765626,-1.2053898572921753,-2.2052998542785645,0.7491498589515686
1712834748806681900,22.409681884765625,-0.8529205918312073,-2.0544161796569824,1.048473834991455
1712834748826681900,22.429681884765625,-0.44180828332901,-2.628018617630005,1.6807193756103516
1712834748846681900,22.449681884765624,-0.04535674303770065,-3.426419496536255,1.7570775747299194
1712834748866682000,22.46968212890625,0.194713294506073,-4.364708423614502,1.9214003086090088
1712834748886682000,22.48968212890625,0.40485092997550964,-4.923039436340332,2.0399081707000732
1712834748906682000,22.50968212890625,0.22708915174007416,-4.348825931549072,2.245769739151001
1712834748926682000,22.52968212890625,-0.5590944290161133,-3.5308775901794434,1.873141884803772
1712834748946682000,22.54968212890625,-1.658041000366211,-1.9688950777053833,1.2060770988464355
1712834748966681900,22.569681884765625,-1.8816176652908325,-0.34949126839637756,0.5915466547012329
1712834748986681900,22.589681884765625,-1.1730140447616577,0.9510408043861389,-0.39561161398887634
1712834749006682000,22.60968212890625,1.8825340270996094,1.9522489309310913,-0.9777661561965942
1712834749026682000,22.62968212890625,3.458566188812256,3.2472832202911377,-0.6973790526390076
1712834749046682000,22.64968212890625,2.2881484031677246,6.613150596618652,-1.1481975317001343
1712834749066682000,22.66968212890625,2.440253973007202,7.717595100402832,-1.2660945653915405
1712834749086682000,22.68968212890625,2.1482603549957275,6.500751495361328,-1.5605316162109375
1712834749106681900,22.709681884765626,1.439045786857605,3.9241220951080322,-2.346715211868286
1712834749126681900,22.729681884765625,0.9650143980979919,2.2466859817504883,-2.823801040649414
1712834749146681900,22.749681884765625,1.0651962757110596,2.801351547241211,-3.6759579181671143
1712834749166681900,22.769681884765625,0.16050484776496887,2.912529230117798,-3.815235137939453
1712834749186681900,22.789681884765624,-0.5694791078567505,2.362750291824341,-1.7321847677230835
1712834749206681900,22.809681884765624,-0.9017898440361023,1.1825587749481201,-0.32475122809410095
1712834749226681900,22.829681884765623,-1.1882855892181396,-0.8833875060081482,-0.39072468876838684
1712834749246681900,22.849681884765626,-1.7062993049621582,-1.38307523727417,-0.5165629386901855
1712834749266681900,22.869681884765626,-1.9115500450134277,-0.901102602481842,-0.3369685411453247
1712834749286681900,22.889681884765626,-1.7912095785140991,-0.11064296960830688,0.102243572473526
1712834749306681900,22.909681884765625,-1.7600555419921875,0.553978443145752,0.7656432390213013
1712834749326681900,22.929681884765625,-1.6146695613861084,0.45440739393234253,1.1083385944366455
1712834749346681900,22.949681884765624,-1.306182622909546,-1.5785521268844604,1.809001088142395
1712834749366682000,22.96968212890625,-1.021519422531128,-3.633502721786499,2.8664088249206543
1712834749386682000,22.98968212890625,-0.6012440919876099,-5.3042192459106445,3.253086566925049
1712834749406682000,23.00968212890625,-0.2658790946006775,-6.076963901519775,2.890232563018799
1712834749426682000,23.02968212890625,-0.24633140861988068,-6.160041332244873,2.7246880531311035
1712834749446682000,23.04968212890625,0.05726861581206322,-5.350645065307617,3.066772699356079
1712834749466681900,23.069681884765625,0.06398813426494598,-3.9413788318634033,3.320281744003296
1712834749486681900,23.089681884765625,-1.1003210544586182,-2.1710915565490723,3.002020835876465
1712834749506682000,23.10968212890625,-2.4601070880889893,-1.2804498672485352,1.5976417064666748
1712834749526682000,23.12968212890625,-1.1058188676834106,-1.433777093887329,0.3807981312274933
1712834749546682000,23.14968212890625,0.36331209540367126,0.12881620228290558,0.14622586965560913
1712834749566682000,23.16968212890625,3.149468421936035,2.5814402103424072,-0.4133267104625702
1712834749586682000,23.18968212890625,3.6033413410186768,4.626006126403809,-0.5978080034255981
1712834749606681900,23.209681884765626,2.733469247817993,7.756690502166748,-1.2544881105422974
1712834749626681900,23.229681884765625,2.646726369857788,8.367555618286133,-1.1255955696105957
1712834749646681900,23.249681884765625,2.4182627201080322,6.2698445320129395,-1.4963908195495605
1712834749666681900,23.269681884765625,2.177581787109375,2.994385004043579,-2.321058750152588
1712834749686681900,23.289681884765624,1.6394095420837402,1.569236397743225,-2.1329123973846436
1712834749706681900,23.309681884765624,1.2075278759002686,1.3713160753250122,-2.2782983779907227
1712834749726681900,23.329681884765623,0.8611672520637512,2.6822328567504883,-2.6460392475128174
1712834749746681900,23.349681884765626,-0.005650503560900688,3.7683513164520264,-3.094414234161377
1712834749766681900,23.369681884765626,-0.8773552179336548,3.652897834777832,-1.3479505777359009
1712834749786681900,23.389681884765626,-1.204779028892517,3.1434361934661865,-0.31009048223495483
1712834749806681900,23.409681884765625,-1.5700763463974,1.2161563634872437,-0.15370896458625793
1712834749826681900,23.429681884765625,-2.1540634632110596,0.03413209691643715,-0.12072224169969559
1712834749846681900,23.449681884765624,-2.023949384689331,-0.2658027410507202,0.6880633234977722
1712834749866682000,23.46968212890625,-2.0141754150390625,-0.3739258944988251,1.724090814590454
1712834749886682000,23.48968212890625,-2.121076822280884,-0.862618088722229,2.2616522312164307
1712834749906682000,23.50968212890625,-2.1681134700775146,-1.7550922632217407,2.547537088394165
1712834749926682000,23.52968212890625,-1.7802140712738037,-3.08066987991333,3.2292628288269043
1712834749946682000,23.54968212890625,-1.126588225364685,-4.192444324493408,3.697185516357422
1712834749966681900,23.569681884765625,-0.5603161454200745,-5.590714931488037,3.3477706909179688
1712834749986681900,23.589681884765625,-0.45402559638023376,-6.676833629608154,3.061274766921997
1712834750006682000,23.60968212890625,-0.44974952936172485,-6.659729480743408,2.971477508544922
1712834750026682000,23.62968212890625,-0.2591595947742462,-5.282227993011475,3.1009809970855713
1712834750046682000,23.64968212890625,-1.0807733535766602,-3.002479076385498,2.7778334617614746
1712834750066682000,23.66968212890625,-2.160783052444458,-1.5559501647949219,1.5444964170455933
1712834750086682000,23.68968212890625,-0.868803083896637,-1.7257707118988037,0.7070001363754272
1712834750106681900,23.709681884765626,-0.027030786499381065,1.1715631484985352,-0.6711118221282959
1712834750126681900,23.729681884765625,2.55448579788208,4.289419174194336,-1.4939472675323486
1712834750146681900,23.749681884765625,3.749338150024414,5.970520496368408,-1.0119746923446655
1712834750166681900,23.769681884765625,2.4127650260925293,8.173300743103027,-0.8788059949874878
1712834750186681900,23.789681884765624,1.6711746454238892,7.505624771118164,-1.2306643724441528
1712834750206681900,23.809681884765624,1.7273741960525513,4.640666961669922,-1.7486780881881714
1712834750226681900,23.829681884765623,1.4237741231918335,2.2857813835144043,-1.659491777420044
1712834750246681900,23.849681884765626,0.8593347072601318,2.0316615104675293,-1.2740358114242554
1712834750266681900,23.869681884765626,0.34804046154022217,2.8642706871032715,-1.6937001943588257
1712834750286681900,23.889681884765626,-0.8339837789535522,4.948543071746826,-2.6582565307617188
1712834750306681900,23.909681884765625,-1.4515684843063354,3.9137372970581055,-2.025400161743164
1712834750326681900,23.929681884765625,-1.8718438148498535,3.128164529800415,-0.7914522886276245
1712834750346681900,23.949681884765624,-2.270128011703491,1.6901878118515015,-0.021151209250092506
1712834750366682000,23.96968212890625,-2.378251075744629,-0.4032474160194397,0.24579690396785736
1712834750386682000,23.98968212890625,-2.560288906097412,-1.337260365486145,0.7668649554252625
1712834750406682000,24.00968212890625,-2.6451992988586426,-1.6145931482315063,1.179809808731079
1712834750426682000,24.02968212890625,-2.7117836475372314,-1.7062230110168457,1.3435217142105103
1712834750446682000,24.04968212890625,-2.6647469997406006,-1.3965142965316772,1.4803556203842163
1712834750466681900,24.069681884765625,-2.292119026184082,-1.0892491340637207,1.6281849145889282
1712834750486681900,24.089681884765625,-2.1198551654815674,-1.2596805095672607,1.751579761505127
1712834750506682000,24.10968212890625,-1.8321375846862793,-1.8913151025772095,2.2976932525634766
1712834750526682000,24.12968212890625,-1.1259773969650269,-3.1820733547210693,3.0423378944396973
1712834750546682000,24.14968212890625,-0.2768746614456177,-4.438012599945068,2.8108201026916504
1712834750566682000,24.16968212890625,-0.05451972410082817,-5.461822509765625,2.4003186225891113
1712834750586682000,24.18968212890625,0.2551889419555664,-5.625534534454346,2.535930633544922
1712834750606681900,24.209681884765626,0.8489499688148499,-4.3604326248168945,2.941545248031616
1712834750626681900,24.229681884765625,0.963792622089386,-2.8332693576812744,3.0563879013061523
1712834750646681900,24.249681884765625,0.4268420934677124,-1.451492190361023,3.055777072906494
1712834750666681900,24.269681884765625,-0.24633140861988068,-0.8265770077705383,2.6800949573516846
1712834750686681900,24.289681884765624,-0.5761986374855042,-1.3922382593154907,2.12604022026062
1712834750706681900,24.309681884765624,-0.5584835410118103,-1.2224177122116089,1.2775483131408691
1712834750726681900,24.329681884765623,0.30222558975219727,0.4263075888156891,0.5176319479942322
1712834750746681900,24.349681884765626,1.6723963022232056,2.2167537212371826,-0.30214923620224
1712834750766681900,24.369681884765626,3.148857593536377,5.059109687805176,0.10407616943120956
1712834750786681900,24.389681884765626,2.423149824142456,5.51848030090332,0.21952970325946808
1712834750806681900,24.409681884765625,2.0028743743896484,4.906393527984619,-0.7938957214355469
1712834750826681900,24.429681884765625,2.0248656272888184,3.698101758956909,-1.385824203491211
1712834750846681900,24.449681884765624,2.2350032329559326,2.79524302482605,-1.662546157836914
1712834750866682000,24.46968212890625,2.638174295425415,2.1532235145568848,-1.490893006324768
1712834750886682000,24.48968212890625,2.4072673320770264,2.759812831878662,-1.3143529891967773
1712834750906682000,24.50968212890625,1.8080084323883057,4.255210876464844,-1.623450756072998
1712834750926682000,24.52968212890625,1.591151237487793,4.773224830627441,-1.9447659254074097
1712834750946682000,24.54968212890625,1.4750868082046509,4.945488452911377,-1.7395151853561401
1712834750966681900,24.569681884765625,0.4812090992927551,5.965022563934326,-2.4646122455596924
1712834750986681900,24.589681884765625,-0.4931209683418274,4.88134765625,-2.2416462898254395
1712834751006682000,24.60968212890625,-0.746630072593689,2.692006826400757,-1.0767263174057007
1712834751026682000,24.62968212890625,-0.917061448097229,1.0475575923919678,-0.17631098628044128
1712834751046682000,24.64968212890625,-1.2976305484771729,0.137979194521904,-0.363235741853714
1712834751066682000,24.66968212890625,-1.6348280906677246,-0.1454622894525528,-0.5593234896659851
1712834751086682000,24.68968212890625,-2.1174116134643555,0.3542254865169525,-0.06696610152721405
1712834751106681900,24.709681884765626,-2.546239137649536,1.0658835172653198,0.39240455627441406
1712834751126681900,24.729681884765625,-2.710561752319336,1.287016749382019,0.8255079984664917
1712834751146681900,24.749681884765625,-2.7814221382141113,1.2057716846466064,1.0796279907226562
1712834751166681900,24.769681884765625,-2.84495210647583,0.5448154211044312,1.408273458480835
1712834751186681900,24.789681884765624,-2.7985262870788574,-0.07643451541662216,1.9940931797027588
1712834751206681900,24.809681884765624,-2.6476426124572754,-0.7813730239868164,2.623284339904785
1712834751226681900,24.829681884765623,-2.458885431289673,-1.6665167808532715,3.2463669776916504
1712834751246681900,24.849681884765626,-2.275014877319336,-2.631072998046875,3.4357352256774902
1712834751266681900,24.869681884765626,-1.8229745626449585,-3.622507333755493,3.3361642360687256
1712834751286681900,24.889681884765626,-1.2725850343704224,-4.593782901763916,3.3386075496673584
1712834751306681900,24.909681884765625,-0.8156577944755554,-5.486257076263428,3.4595589637756348
1712834751326681900,24.929681884765625,-0.038637228310108185,-6.315201282501221,3.3074533939361572
1712834751346681900,24.949681884765624,0.1892155110836029,-6.6804986000061035,2.82364821434021
1712834751366682000,24.96968212890625,0.35964691638946533,-6.376898765563965,3.133967876434326
1712834751386682000,24.98968212890625,0.85994553565979,-5.3872971534729,3.311729669570923
1712834751406682000,25.00968212890625,0.7835873961448669,-3.767282247543335,3.5682928562164307
1712834751426682000,25.02968212890625,-0.11621711403131485,-1.3513102531433105,3.320892572402954
1712834751446682000,25.04968212890625,-0.6311765313148499,-0.3879757821559906,2.628782272338867
1712834751466681900,25.069681884765625,-0.7680103182792664,-1.290834665298462,2.0075323581695557
1712834751486681900,25.089681884765625,-0.8999572396278381,-2.0629682540893555,0.7442629337310791
1712834751506682000,25.10968212890625,-0.565203070640564,-0.2517528533935547,0.3245985209941864
1712834751526682000,25.12968212890625,1.0389291048049927,2.388406753540039,-0.13171781599521637
