time,seconds_elapsed,z,y,x
1712834610674016800,0.098016845703125,-0.1298995018005371,-0.21794748306274414,0.12769293785095215
1712834610696017000,0.120016845703125,-0.1590442657470703,0.38089513778686523,-0.18920516967773438
1712834610716017000,0.140016845703125,-0.005947113037109375,-0.13152122497558594,-0.2810065746307373
1712834610736017000,0.160016845703125,-0.12120199203491211,-0.23137378692626953,0.3735365867614746
1712834610756017000,0.180016845703125,-0.20935964584350586,-0.007229328155517578,-0.18555068969726562
1712834610776017000,0.200016845703125,-0.1512460708618164,0.13428735733032227,-0.19696879386901855
1712834610796017000,0.220016845703125,-0.019653797149658203,-0.06002998352050781,0.11586689949035645
1712834610816017000,0.240016845703125,-0.13602256774902344,-0.11667490005493164,0.4323554039001465
1712834610836017000,0.260016845703125,-0.23750972747802734,-0.09172821044921875,0.38444995880126953
1712834610856017000,0.280016845703125,-0.2839536666870117,-0.1702418327331543,0.4272456169128418
1712834610876017000,0.300016845703125,-0.4852137565612793,-0.1151423454284668,0.8700387477874756
1712834610896017000,0.320016845703125,-0.45427465438842773,-0.1328411102294922,0.918175220489502
1712834610916017700,0.340017578125,-0.6640377044677734,-1.0869224071502686,2.7735865116119385
1712834610936017700,0.360017578125,-0.6007380485534668,-1.5000977516174316,3.0860776901245117
1712834610956017700,0.380017578125,-1.3214445114135742,-0.692540168762207,2.858212471008301
1712834610976017700,0.400017578125,-0.7827243804931641,0.6407570838928223,2.856121063232422
1712834610996017700,0.420017578125,-1.2938480377197266,1.5950427055358887,6.3105692863464355
1712834611016017700,0.440017578125,-1.102247714996338,1.8974013328552246,6.955051898956299
1712834611036017700,0.460017578125,-1.3714933395385742,2.7651209831237793,3.0072388648986816
1712834611056018200,0.48001806640625,-3.833686590194702,2.242875576019287,-1.1653175354003906
1712834611076018200,0.50001806640625,-3.249570608139038,1.6631712913513184,-2.2145347595214844
1712834611096018200,0.52001806640625,-1.4794023036956787,1.3189096450805664,-0.12128925323486328
1712834611116018200,0.54001806640625,-0.4732832908630371,1.32008695602417,1.348888874053955
1712834611136018200,0.56001806640625,-0.49120140075683594,1.3493671417236328,1.4977011680603027
1712834611156018200,0.58001806640625,-0.2173757553100586,1.202692985534668,1.148634433746338
1712834611176018200,0.60001806640625,-0.00963592529296875,0.9652714729309082,1.0164732933044434
1712834611196018200,0.62001806640625,-1.594780683517456,2.4848756790161133,-1.2632217407226562
1712834611216018200,0.64001806640625,-1.4024302959442139,2.427389144897461,-2.114579200744629
1712834611236018200,0.66001806640625,-2.2452192306518555,1.2414193153381348,-2.152574062347412
1712834611256018200,0.68001806640625,-2.0956358909606934,1.0186891555786133,-2.4229354858398438
1712834611276018200,0.70001806640625,-2.045372486114502,0.770787239074707,-2.1321699619293213
1712834611296018200,0.72001806640625,-1.913252592086792,2.023289680480957,-0.41027259826660156
1712834611316018200,0.74001806640625,-2.136042356491089,1.525193214416504,-0.588963508605957
1712834611336018200,0.76001806640625,-2.100044012069702,1.388031005859375,-0.9418725967407227
1712834611356018200,0.78001806640625,-1.1747722625732422,1.681884765625,-0.8535552024841309
1712834611376018200,0.80001806640625,-1.1275575160980225,1.5745649337768555,-1.1971521377563477
1712834611396018200,0.82001806640625,-1.283689260482788,1.6864051818847656,0.10502195358276367
1712834611416018400,0.840018310546875,-0.8450672626495361,1.3912353515625,-0.14806830883026123
1712834611436018400,0.860018310546875,-0.7664127349853516,1.3233871459960938,-0.41386306285858154
1712834611456018400,0.880018310546875,1.7091174125671387,0.7673711776733398,-0.8472241163253784
1712834611476018400,0.900018310546875,1.7544515132904053,0.7320365905761719,-1.055904746055603
1712834611496018400,0.920018310546875,2.7470648288726807,0.46486949920654297,-0.9324291348457336
1712834611516018200,0.94001806640625,2.9995062351226807,0.8614225387573242,-1.035770058631897
1712834611536018200,0.96001806640625,2.6919615268707275,0.49208545684814453,-0.980109691619873
1712834611556018400,0.980018310546875,2.6325228214263916,0.3904399871826172,-0.8836168050765991
1712834611576018400,1.000018310546875,2.5228378772735596,0.4281015396118164,-0.9094686508178711
1712834611596018400,1.020018310546875,2.340059518814087,-0.26235008239746094,-1.5609610080718994
1712834611616018400,1.040018310546875,1.9193322658538818,-0.9010934829711914,-2.3617420196533203
1712834611636018400,1.060018310546875,1.4406468868255615,-0.6946372985839844,-2.3725810050964355
1712834611656018200,1.08001806640625,0.5826148986816406,-0.6931753158569336,-2.536010503768921
1712834611676018200,1.10001806640625,-0.025987625122070312,-0.5857954025268555,-2.7854270935058594
1712834611696018200,1.12001806640625,-0.25415515899658203,-0.4428682327270508,-2.560560703277588
1712834611716018200,1.14001806640625,-1.2977089881896973,0.09929275512695312,-4.08687686920166
1712834611736018200,1.16001806640625,-1.4239296913146973,0.248291015625,-3.674962282180786
1712834611756018200,1.18001806640625,-1.4110047817230225,-1.515110969543457,-4.01718807220459
1712834611776018200,1.20001806640625,-1.452671766281128,-1.378495693206787,-3.637826919555664
1712834611796018200,1.22001806640625,-1.7829859256744385,-0.9976544380187988,-1.1276650428771973
1712834611816018200,1.24001806640625,-2.824266195297241,-1.08854341506958,-2.0044140815734863
1712834611836018200,1.26001806640625,-3.406312942504883,-1.488088607788086,-2.099158763885498
1712834611856018200,1.28001806640625,-3.2752208709716797,-1.4194369316101074,-1.784109354019165
1712834611876018200,1.30001806640625,-4.452548503875732,0.49013614654541016,1.2895891666412354
1712834611896018200,1.32001806640625,-6.096560478210449,-0.8139681816101074,1.662665843963623
1712834611916018400,1.340018310546875,-7.352387428283691,-2.898310661315918,1.8619194030761719
1712834611936018400,1.360018310546875,-7.144145965576172,-3.0778660774230957,1.7349600791931152
1712834611956018400,1.380018310546875,-8.837783813476562,-0.41384172439575195,4.346773624420166
1712834611976018400,1.400018310546875,-8.49755573272705,-0.6943173408508301,4.052531719207764
1712834611996018400,1.420018310546875,-5.458884239196777,-1.6212077140808105,2.4429619312286377
1712834612016018200,1.44001806640625,-4.254501819610596,-0.5804471969604492,-2.3213002681732178
1712834612036018200,1.46001806640625,-5.73134708404541,1.8603696823120117,-5.404335975646973
1712834612056018400,1.480018310546875,-3.329448699951172,5.5637102127075195,-4.560370445251465
1712834612076018400,1.500018310546875,-1.1333054304122925,11.459223747253418,-2.887545108795166
1712834612096018400,1.520018310546875,3.095702648162842,4.026087760925293,0.46301960945129395
1712834612116018400,1.540018310546875,-3.990781784057617,1.5589733123779297,6.797147750854492
1712834612136018400,1.560018310546875,-4.062170505523682,1.535487174987793,6.668055534362793
1712834612156018200,1.58001806640625,-9.674775123596191,5.577326774597168,21.62751007080078
1712834612176018200,1.60001806640625,-9.407623291015625,5.448494911193848,21.259639739990234
1712834612196018200,1.62001806640625,4.997494697570801,2.704803466796875,8.459694862365723
1712834612216018200,1.64001806640625,4.11409854888916,3.548436164855957,2.83614444732666
1712834612236018200,1.66001806640625,4.208824634552002,3.544401168823242,2.8800878524780273
1712834612256018200,1.68001806640625,-1.9258010387420654,1.6488304138183594,-1.2115600109100342
1712834612276018200,1.70001806640625,-2.5326695442199707,0.9426727294921875,-1.075781226158142
1712834612296018200,1.72001806640625,-3.1706442832946777,0.8105001449584961,-4.068865776062012
1712834612315715000,1.739715087890625,-2.9497318267822266,0.3894214630126953,-6.746591567993164
1712834612335715000,1.759715087890625,-1.5100599527359009,0.11569499969482422,-5.521847248077393
1712834612355715000,1.779715087890625,-1.7145535945892334,0.13045024871826172,-5.603573799133301
1712834612375715000,1.799715087890625,-0.44160163402557373,0.8150196075439453,-2.9652013778686523
1712834612395715000,1.819715087890625,0.4741564989089966,0.8457860946655273,-0.6072748303413391
1712834612415715300,1.83971533203125,0.9360549449920654,-0.6179141998291016,1.8420320749282837
1712834612435715300,1.85971533203125,0.38901591300964355,-0.7201375961303711,1.608545184135437
1712834612455715300,1.87971533203125,-0.2397909164428711,-0.5094127655029297,1.0345886945724487
1712834612475715300,1.89971533203125,-0.37882304191589355,-0.4808368682861328,0.946541428565979
1712834612495715300,1.91971533203125,-0.7068719863891602,-0.4944744110107422,0.3487093150615692
1712834612515715000,1.939715087890625,-1.2107547521591187,-0.29892444610595703,-0.18836846947669983
1712834612535715000,1.959715087890625,-1.5035021305084229,-0.7216291427612305,0.014151796698570251
1712834612555715300,1.97971533203125,-1.1941715478897095,-0.80206298828125,0.42845606803894043
1712834612575715300,1.99971533203125,-0.7849767208099365,-0.502227783203125,0.5439568161964417
1712834612595715300,2.01971533203125,-0.8420181274414062,-0.4853372573852539,0.4869517385959625
1712834612615715300,2.03971533203125,0.2302227020263672,-1.124098777770996,1.1862739324569702
1712834612635715300,2.05971533203125,0.19522762298583984,-1.1129207611083984,1.141800880432129
1712834612655715000,2.079715087890625,0.33080410957336426,-0.9771347045898438,1.272560477256775
1712834612675715000,2.099715087890625,-0.47743964195251465,0.21709632873535156,0.2179720252752304
1712834612695715000,2.119715087890625,-0.6243512630462646,0.3019113540649414,-0.20174700021743774
1712834612715715000,2.139715087890625,-0.26605749130249023,0.46194934844970703,-0.22332432866096497
1712834612735715000,2.159715087890625,0.1423344612121582,0.4995384216308594,0.027622677385807037
1712834612755715000,2.179715087890625,0.5538759231567383,0.09282398223876953,0.46013739705085754
1712834612775715000,2.199715087890625,0.5636584758758545,0.09102344512939453,0.5244485139846802
1712834612795715000,2.219715087890625,0.9684278964996338,-0.019725799560546875,0.9879534244537354
1712834612815715000,2.239715087890625,1.307678461074829,-0.15236949920654297,1.1972945928573608
1712834612835715000,2.259715087890625,1.5908288955688477,-0.3540048599243164,1.1482954025268555
1712834612855715000,2.279715087890625,1.3782715797424316,-0.41391944885253906,0.5139521360397339
1712834612875715000,2.299715087890625,1.100923776626587,-0.5694675445556641,0.2873438596725464
1712834612895715000,2.319715087890625,0.9620378017425537,-0.8906278610229492,0.28714367747306824
1712834612915715300,2.33971533203125,0.9888668060302734,-0.8940410614013672,0.36169376969337463
1712834612935715300,2.35971533203125,0.9607551097869873,-1.5114970207214355,-0.018276333808898926
1712834612955715300,2.37971533203125,0.865990400314331,-1.8326177597045898,0.05985438823699951
1712834612975715300,2.39971533203125,0.6406145095825195,-2.054542064666748,-0.0050781965255737305
1712834612995715300,2.41971533203125,0.701042652130127,-2.0566964149475098,0.13798540830612183
1712834613015715000,2.439715087890625,-0.3653883934020996,-0.7150402069091797,-0.5980386734008789
1712834613035715000,2.459715087890625,-0.2984194755554199,-0.7076082229614258,-0.4161972999572754
1712834613055715300,2.47971533203125,-0.3981037139892578,0.48490238189697266,-0.788245677947998
1712834613075715300,2.49971533203125,0.48651695251464844,0.5792369842529297,0.2960556745529175
1712834613095715300,2.51971533203125,1.2146620750427246,0.8818254470825195,1.0155937671661377
1712834613115715300,2.53971533203125,1.213881492614746,1.8641300201416016,1.0553948879241943
1712834613135715300,2.55971533203125,0.42052268981933594,1.9860429763793945,0.8224685192108154
1712834613155715000,2.579715087890625,0.21584534645080566,0.9755725860595703,1.1414653062820435
1712834613175715000,2.599715087890625,0.40407776832580566,0.6139364242553711,2.1440789699554443
1712834613195715000,2.619715087890625,0.3641180992126465,0.6472711563110352,2.235252857208252
1712834613215715000,2.639715087890625,1.0010864734649658,0.9654264450073242,3.3566060066223145
1712834613235715000,2.659715087890625,0.8619177341461182,1.2722101211547852,3.036362409591675
1712834613255715000,2.679715087890625,0.39667582511901855,2.1022825241088867,2.868239402770996
1712834613275715000,2.699715087890625,0.5376682281494141,2.71884822845459,3.1522181034088135
1712834613295715000,2.719715087890625,0.6815783977508545,3.6021957397460938,3.734546184539795
1712834613315715000,2.739715087890625,-1.0400532484054565,4.490407943725586,3.6583776473999023
1712834613335715000,2.759715087890625,-3.220459222793579,3.710089683532715,2.8231663703918457
1712834613355715000,2.779715087890625,-2.426901340484619,3.2816381454467773,1.8198513984680176
1712834613375715000,2.799715087890625,-2.450486421585083,4.617518424987793,2.6931779384613037
1712834613395715000,2.819715087890625,-3.491820812225342,4.2009735107421875,9.302894592285156
1712834613415715300,2.83971533203125,-0.7901418209075928,3.4093713760375977,3.5607144832611084
1712834613435715300,2.85971533203125,-3.291194438934326,0.26447296142578125,-1.276773452758789
1712834613455715300,2.87971533203125,-3.414297103881836,0.48597240447998047,-0.6345810890197754
1712834613475715300,2.89971533203125,-5.224178314208984,1.6452083587646484,-7.120044708251953
1712834613495715300,2.91971533203125,-2.0062942504882812,0.943974494934082,-3.1959784030914307
1712834613515715000,2.939715087890625,-0.22937655448913574,-0.01743316650390625,-1.5707135200500488
1712834613535715000,2.959715087890625,-1.8353638648986816,0.09098958969116211,1.6058993339538574
1712834613555715300,2.97971533203125,-3.0061731338500977,0.9125809669494629,3.3620765209198
1712834613575715300,2.99971533203125,-3.359710216522217,-0.30651140213012695,2.043384075164795
1712834613595715300,3.01971533203125,-3.6333742141723633,-0.21642780303955078,1.8308366537094116
1712834613615715300,3.03971533203125,-2.3071839809417725,0.6976385116577148,-0.6775050163269043
1712834613635715300,3.05971533203125,-2.5020387172698975,0.716977596282959,-1.0121347904205322
1712834613655715000,3.079715087890625,-2.322671890258789,-2.233818531036377,-0.9477932453155518
1712834613675715000,3.099715087890625,-2.468773365020752,-2.2607498168945312,-1.5135259628295898
1712834613695715000,3.119715087890625,-0.9231858253479004,-4.194845199584961,-0.7932662963867188
1712834613715715000,3.139715087890625,-3.822261095046997,-0.9107093811035156,-0.5555069446563721
1712834613735715000,3.159715087890625,-3.7553012371063232,-0.9674868583679199,-1.1338179111480713
1712834613755715000,3.179715087890625,-3.7340476512908936,1.4445934295654297,-1.7749063968658447
1712834613775715000,3.199715087890625,-2.847841739654541,-0.7334938049316406,-1.974868655204773
1712834613795715000,3.219715087890625,-0.5191612243652344,-0.464296817779541,-0.11155509948730469
1712834613815715000,3.239715087890625,-0.9545173645019531,0.5556483268737793,-3.205904483795166
1712834613835715000,3.259715087890625,0.5182838439941406,-0.6738781929016113,-3.8845200538635254
1712834613855715000,3.279715087890625,0.09391164779663086,-1.8532557487487793,-4.114137649536133
1712834613875715000,3.299715087890625,0.086883544921875,-1.891028881072998,-3.878803253173828
1712834613895715000,3.319715087890625,-1.6189367771148682,0.2629661560058594,-4.326595306396484
1712834613915715300,3.33971533203125,-1.557753324508667,0.1818838119506836,-3.897841215133667
1712834613935715300,3.35971533203125,-1.4588024616241455,0.20746707916259766,-3.0752999782562256
1712834613955715300,3.37971533203125,-1.8902218341827393,-0.3942437171936035,-2.2503888607025146
1712834613975715300,3.39971533203125,-2.8197152614593506,-0.2508859634399414,-2.255244016647339
1712834613995715300,3.41971533203125,-3.5275235176086426,-0.19482421875,-2.080766201019287
1712834614015715000,3.439715087890625,-3.76177978515625,-0.3753700256347656,-1.6177273988723755
1712834614035715000,3.459715087890625,-3.4422245025634766,-0.5002861022949219,-1.4594640731811523
1712834614055715300,3.47971533203125,-6.703527450561523,0.19556617736816406,-2.2562828063964844
1712834614075715300,3.49971533203125,-8.271565437316895,-1.5037994384765625,-2.557994842529297
1712834614095715300,3.51971533203125,-10.504262924194336,0.9492979049682617,-2.34721302986145
1712834614115715300,3.53971533203125,-9.514116287231445,6.810508728027344,0.671635091304779
1712834614135715300,3.55971533203125,-5.144841194152832,5.121519088745117,2.896949291229248
1712834614155715000,3.579715087890625,-4.897099494934082,5.091362953186035,3.1050772666931152
1712834614175715000,3.599715087890625,4.080381870269775,5.3826494216918945,6.838561534881592
1712834614195715000,3.619715087890625,3.9439587593078613,5.437516212463379,7.042883396148682
1712834614215715000,3.639715087890625,0.21555769443511963,2.208359718322754,6.764901638031006
1712834614235715000,3.659715087890625,0.20836162567138672,2.2204370498657227,6.826329231262207
1712834614255715000,3.679715087890625,-3.43735671043396,6.308408737182617,14.321867942810059
1712834614275715000,3.699715087890625,-2.611114978790283,5.8170881271362305,7.182652473449707
1712834614295715000,3.719715087890625,-2.5191245079040527,5.779903411865234,6.969851016998291
1712834614315715000,3.739715087890625,3.043335199356079,3.5441017150878906,2.4375510215759277
1712834614335715000,3.759715087890625,1.3325793743133545,0.9020195007324219,3.9249911308288574
1712834614355715000,3.779715087890625,-0.6196353435516357,0.40311431884765625,2.679795026779175
1712834614375715000,3.799715087890625,-0.6616235971450806,0.41768741607666016,2.7549996376037598
1712834614395715000,3.819715087890625,-1.9710639715194702,0.06049346923828125,-4.66335916519165
1712834614415715300,3.83971533203125,-0.664533257484436,-0.5586166381835938,-4.271327972412109
1712834614435715300,3.85971533203125,0.3513505458831787,-0.030162811279296875,-1.293766736984253
1712834614455715300,3.87971533203125,0.8201866149902344,0.17740726470947266,1.1313742399215698
1712834614475715300,3.89971533203125,1.169750690460205,-0.1255168914794922,2.9880833625793457
1712834614495715300,3.91971533203125,1.1329612731933594,-0.5629091262817383,4.1468024253845215
1712834614515715000,3.939715087890625,0.8616683483123779,-0.6025905609130859,3.9904441833496094
1712834614535715000,3.959715087890625,0.32102465629577637,-0.0017833709716796875,3.1837809085845947
1712834614555715300,3.97971533203125,-0.17162370681762695,-0.007111549377441406,2.2092926502227783
1712834614575715300,3.99971533203125,-0.29246950149536133,0.0305023193359375,2.210047721862793
1712834614595715300,4.01971533203125,-0.24662137031555176,-0.39050769805908203,0.6474144458770752
1712834614615715300,4.03971533203125,-0.42666006088256836,-0.7392206192016602,-0.12046396732330322
1712834614635715300,4.05971533203125,-0.4686613082885742,-1.1659307479858398,-0.6818892359733582
1712834614655715000,4.079715087890625,-0.5443558692932129,-1.1418867111206055,-0.7270636558532715
1712834614675715000,4.099715087890625,-0.3815724849700928,-1.1981253623962402,-1.0638298988342285
1712834614695715000,4.119715087890625,-0.3007040023803711,-0.28278255462646484,-1.7552580833435059
1712834614715715000,4.139715087890625,-0.564521074295044,0.07229423522949219,-2.125398635864258
1712834614735715000,4.159715087890625,-0.597724199295044,0.0832223892211914,-2.1741116046905518
1712834614755715000,4.179715087890625,-0.6632659435272217,-0.239593505859375,-2.547870635986328
1712834614775715000,4.199715087890625,-0.6743381023406982,-0.23624324798583984,-2.5804171562194824
1712834614795715000,4.219715087890625,-0.5246012210845947,-0.2262868881225586,-2.3517024517059326
1712834614815715000,4.239715087890625,-0.036545753479003906,-0.3350849151611328,-1.8435664176940918
1712834614835715000,4.259715087890625,0.2621908187866211,-0.09174633026123047,-1.1819745302200317
1712834614855715000,4.279715087890625,-0.007860898971557617,-0.05021190643310547,-0.48589372634887695
1712834614875715000,4.299715087890625,0.0419464111328125,-0.06893348693847656,-0.476142942905426
1712834614895715000,4.319715087890625,0.007822990417480469,-0.5157957077026367,-0.22184397280216217
1712834614915715300,4.33971533203125,0.17764997482299805,-0.881718635559082,0.0165872722864151
1712834614935715300,4.35971533203125,0.3033430576324463,-1.1211719512939453,0.2182806432247162
1712834614955715300,4.37971533203125,-0.11028790473937988,-1.3580584526062012,0.012419253587722778
1712834614975715300,4.39971533203125,-0.43918895721435547,-0.8061294555664062,-0.25591322779655457
1712834614995715300,4.41971533203125,-0.3196909427642822,-0.8366308212280273,-0.11354535818099976
1712834615015715000,4.439715087890625,-0.9186583757400513,-0.6117439270019531,-1.346978783607483
1712834615035715000,4.459715087890625,-1.3945444822311401,0.1698760986328125,-0.40139681100845337
1712834615055715300,4.47971533203125,-1.119753122329712,0.37671375274658203,0.17655527591705322
1712834615075715300,4.49971533203125,-0.42291927337646484,1.1536426544189453,0.24645155668258667
1712834615095715300,4.51971533203125,-0.7745922803878784,1.738327980041504,0.43549633026123047
1712834615115715300,4.53971533203125,-0.011610984802246094,2.144866943359375,1.5328168869018555
1712834615135715300,4.55971533203125,0.7020919322967529,1.8797283172607422,2.846092939376831
1712834615155715000,4.579715087890625,1.80757737159729,1.5747575759887695,4.04958438873291
1712834615175715000,4.599715087890625,2.207455635070801,1.000443458557129,4.38747501373291
1712834615195715000,4.619715087890625,1.8087975978851318,0.8467922210693359,4.07025146484375
1712834615215715000,4.639715087890625,0.9207913875579834,1.4981775283813477,3.4370357990264893
1712834615235715000,4.659715087890625,-0.19709503650665283,1.716653823852539,2.994739532470703
1712834615255715000,4.679715087890625,-0.36217427253723145,1.5193538665771484,3.099499464035034
1712834615275715000,4.699715087890625,0.7616150379180908,1.3770103454589844,3.0707945823669434
1712834615295715000,4.719715087890625,0.5170741081237793,1.245743751525879,2.848060131072998
1712834615315715000,4.739715087890625,0.2275698184967041,2.1682024002075195,2.531442403793335
1712834615335715000,4.759715087890625,0.12012910842895508,2.19728946685791,2.5380749702453613
1712834615355715000,4.779715087890625,-2.298227310180664,1.8322038650512695,-2.143059015274048
1712834615375715000,4.799715087890625,-2.14601469039917,1.7986135482788086,-3.0157530307769775
1712834615395715000,4.819715087890625,-1.3692418336868286,2.32919979095459,-2.691751003265381
1712834615415715300,4.83971533203125,-2.8637945652008057,0.8564863204956055,-1.968508243560791
1712834615435715300,4.85971533203125,-2.5116753578186035,0.03797149658203125,-1.6476478576660156
1712834615455715300,4.87971533203125,-2.9231271743774414,-0.5625600814819336,-2.729936361312866
1712834615475715300,4.89971533203125,-4.235353469848633,-2.1306018829345703,-4.260673999786377
1712834615495715300,4.91971533203125,-3.550644874572754,-1.7827205657958984,-4.703154563903809
1712834615515715000,4.939715087890625,-3.4139223098754883,-1.5196499824523926,-4.165820598602295
1712834615535715000,4.959715087890625,-2.4466912746429443,-0.8629598617553711,-2.288529872894287
1712834615555715300,4.97971533203125,-2.2900030612945557,-0.563115119934082,-1.8205795288085938
1712834615575715300,4.99971533203125,-2.0457911491394043,1.0792279243469238,-0.6621007919311523
1712834615595715300,5.01971533203125,-1.8615119457244873,1.348106861114502,-0.3097972869873047
1712834615615715300,5.03971533203125,-1.2230422496795654,1.8273224830627441,0.4360237121582031
1712834615635715300,5.05971533203125,-2.7565340995788574,2.3650331497192383,3.367964744567871
1712834615655715000,5.079715087890625,-3.2132158279418945,1.2922296524047852,6.671267032623291
1712834615675715000,5.099715087890625,-2.888993263244629,-0.8690381050109863,8.246112823486328
1712834615695715000,5.119715087890625,-3.114182949066162,-1.5077366828918457,8.199728012084961
1712834615715715000,5.139715087890625,-3.141195058822632,-1.6451172828674316,8.067975044250488
1712834615735715000,5.159715087890625,-3.417947769165039,0.5213360786437988,4.818925857543945
1712834615755715000,5.179715087890625,-4.114145278930664,1.1261515617370605,1.930349349975586
1712834615775715000,5.199715087890625,-3.946322441101074,1.8911757469177246,-0.023628711700439453
1712834615795715000,5.219715087890625,-3.9089584350585938,1.4769587516784668,-0.5339875221252441
1712834615815715000,5.239715087890625,-0.364821195602417,1.2707891464233398,-3.38932466506958
1712834615835715000,5.259715087890625,-0.7749673128128052,1.4960689544677734,-5.13457727432251
1712834615855715000,5.279715087890625,-0.6241267919540405,2.1398534774780273,-4.533350944519043
1712834615875715000,5.299715087890625,0.27665066719055176,3.013792037963867,-3.241060256958008
1712834615895715000,5.319715087890625,0.18462562561035156,2.9742002487182617,-3.3765792846679688
1712834615915715300,5.33971533203125,2.867816686630249,0.08649635314941406,2.4305267333984375
1712834615935715300,5.35971533203125,2.6731436252593994,0.05556964874267578,2.225851535797119
1712834615955715300,5.37971533203125,-7.734886646270752,2.2217674255371094,5.465821743011475
1712834615975715300,5.39971533203125,-8.016122817993164,7.817296981811523,14.244741439819336
1712834615995715300,5.41971533203125,-7.8492045402526855,7.642306327819824,13.80716323852539
1712834616015715000,5.439715087890625,5.347477912902832,1.533625602722168,11.611059188842773
1712834616035715000,5.459715087890625,5.458509922027588,1.4622793197631836,11.388178825378418
1712834616055715300,5.47971533203125,5.452753067016602,1.277604103088379,5.949459552764893
1712834616075715300,5.49971533203125,0.4771909713745117,4.45948600769043,0.9228953123092651
1712834616095715300,5.51971533203125,0.5179184675216675,4.439205169677734,0.8540587425231934
1712834616115715300,5.53971533203125,-0.7283893823623657,1.4283275604248047,-1.137900948524475
1712834616135715300,5.55971533203125,-1.4349126815795898,1.1946134567260742,-2.5080912113189697
1712834616155715000,5.579715087890625,-1.277329683303833,0.28756141662597656,-3.2568445205688477
1712834616175715000,5.599715087890625,-0.42096006870269775,-0.45761871337890625,-2.196810245513916
1712834616195715000,5.619715087890625,-0.5756351947784424,-0.43276405334472656,-2.2359087467193604
1712834616215715000,5.639715087890625,0.30049896240234375,-0.7530050277709961,-0.19245541095733643
1712834616235715000,5.659715087890625,0.7226102352142334,-0.8220806121826172,1.532773494720459
1712834616255715000,5.679715087890625,0.5397040843963623,-0.6530704498291016,2.1749701499938965
1712834616275715000,5.699715087890625,0.01894235610961914,-0.45522308349609375,1.7218985557556152
1712834616295715000,5.719715087890625,-0.23728108406066895,-0.3099679946899414,1.2589726448059082
1712834616315715000,5.739715087890625,-0.37613415718078613,-0.26662158966064453,1.2634291648864746
1712834616335715000,5.759715087890625,-0.053299665451049805,-0.1177682876586914,0.134049654006958
1712834616355715000,5.779715087890625,-0.16819429397583008,-0.07824993133544922,0.13828754425048828
1712834616375715000,5.799715087890625,-0.11167001724243164,-0.2877321243286133,-0.5712708234786987
1712834616395715000,5.819715087890625,0.018936872482299805,-0.8662929534912109,-1.1420820951461792
1712834616415715300,5.83971533203125,-0.15408945083618164,-1.0610876083374023,-0.9276840686798096
1712834616435715300,5.85971533203125,-0.21242380142211914,-1.0457935333251953,-0.9741884469985962
1712834616455715300,5.87971533203125,-0.1721358299255371,-0.9297475814819336,-0.42107272148132324
1712834616475715300,5.89971533203125,-0.2068638801574707,-0.9204673767089844,-0.45231354236602783
1712834616495715300,5.91971533203125,-0.03363633155822754,-0.8454914093017578,-0.3534855842590332
1712834616515715000,5.939715087890625,-0.02876734733581543,-0.8489389419555664,-0.36499452590942383
1712834616535715000,5.959715087890625,0.26830506324768066,-1.070204257965088,-0.11027181148529053
1712834616555715300,5.97971533203125,0.586500883102417,-0.48618316650390625,-0.24943578243255615
1712834616575715300,5.99971533203125,0.5277061462402344,-0.48873424530029297,-0.4089621305465698
1712834616595715300,6.01971533203125,0.5903763771057129,-0.5069961547851562,-0.37110447883605957
1712834616615715300,6.03971533203125,0.5489730834960938,-0.7609701156616211,-0.05327320098876953
1712834616635715300,6.05971533203125,0.7097723484039307,-0.9747610092163086,0.39013051986694336
1712834616655715000,6.079715087890625,0.5634939670562744,-0.23523712158203125,0.16717422008514404
1712834616675715000,6.099715087890625,0.3798971176147461,0.052494049072265625,-0.44501543045043945
1712834616695715000,6.119715087890625,0.3188133239746094,0.008784294128417969,-0.867103099822998
1712834616715715000,6.139715087890625,0.2161111831665039,-0.5174245834350586,-0.9694223403930664
1712834616735715000,6.159715087890625,0.19937419891357422,-0.3427906036376953,0.13964343070983887
1712834616755715000,6.179715087890625,0.41008901596069336,0.7370233535766602,0.3795948028564453
1712834616775715000,6.199715087890625,-0.04072380065917969,1.8050785064697266,0.2360905408859253
1712834616795715000,6.219715087890625,0.10487127304077148,1.6045160293579102,0.7064664363861084
1712834616815715000,6.239715087890625,0.14213132858276367,1.627366065979004,0.8413081169128418
1712834616835715000,6.259715087890625,1.857893705368042,0.5377511978149414,3.2973618507385254
1712834616855715000,6.279715087890625,2.346334218978882,0.08700847625732422,3.8489456176757812
1712834616875715000,6.299715087890625,2.0338194370269775,0.3222074508666992,3.1155457496643066
1712834616895715000,6.319715087890625,2.050154447555542,0.3317422866821289,3.163836717605591
1712834616915715300,6.33971533203125,0.37854480743408203,0.778564453125,1.800453543663025
1712834616935715300,6.35971533203125,0.1558518409729004,1.4478416442871094,0.9458248615264893
1712834616955715300,6.37971533203125,-0.6439577341079712,1.2660350799560547,-1.2122399806976318
1712834616975715300,6.39971533203125,-0.8270221948623657,0.6904535293579102,-1.0482919216156006
1712834616995715300,6.41971533203125,-0.8563343286514282,0.7286643981933594,-0.952296257019043
1712834617015715000,6.439715087890625,-0.9838279485702515,0.4699249267578125,-0.26969242095947266
1712834617035715000,6.459715087890625,0.716526985168457,-0.0705556869506836,-1.3814728260040283
1712834617055715300,6.47971533203125,-0.29293322563171387,-0.1550130844116211,-3.1818861961364746
1712834617075715300,6.49971533203125,-1.9092128276824951,-0.48246288299560547,-4.182161331176758
1712834617095715300,6.51971533203125,-3.6334762573242188,-1.1735239028930664,-4.542028903961182
1712834617115715300,6.53971533203125,-1.638693928718567,0.08969879150390625,-2.554671287536621
1712834617135715300,6.55971533203125,-0.12125372886657715,0.3295774459838867,-1.0162677764892578
1712834617155715000,6.579715087890625,-0.27007222175598145,-0.7997708320617676,-1.2602019309997559
1712834617175715000,6.599715087890625,-1.602656602859497,-0.40682411193847656,-1.6870908737182617
1712834617195715000,6.619715087890625,-2.6045398712158203,-0.37007951736450195,-2.5139026641845703
1712834617215715000,6.639715087890625,-2.5601298809051514,0.18475055694580078,-1.9154744148254395
1712834617235715000,6.659715087890625,-1.7744901180267334,0.3961973190307617,-0.8599214553833008
1712834617255715000,6.679715087890625,-1.6828405857086182,0.11665821075439453,0.06318330764770508
1712834617275715000,6.699715087890625,-2.46099591255188,0.008785247802734375,1.192948818206787
1712834617295715000,6.719715087890625,-3.6164662837982178,0.4858517646789551,1.6989631652832031
1712834617315715000,6.739715087890625,-3.9098966121673584,0.8799920082092285,1.91790771484375
1712834617335715000,6.759715087890625,-4.019047260284424,1.1608924865722656,2.7253689765930176
1712834617355715000,6.779715087890625,-3.582932233810425,1.067373275756836,2.984673500061035
1712834617375715000,6.799715087890625,-3.5865559577941895,1.214317798614502,3.0705814361572266
1712834617395715000,6.819715087890625,-2.4705495834350586,0.8648905754089355,1.7812519073486328
1712834617415715300,6.83971533203125,-2.4402828216552734,1.8775639533996582,1.6332144737243652
1712834617435715300,6.85971533203125,-5.101327896118164,5.168648719787598,0.6629519462585449
1712834617455715300,6.87971533203125,-4.012739181518555,5.851655960083008,1.734954833984375
1712834617475715300,6.89971533203125,-4.143148899078369,5.646897792816162,1.5893526077270508
1712834617495715300,6.91971533203125,-3.1022329330444336,2.592251777648926,0.9457345008850098
1712834617515715000,6.939715087890625,-4.395974636077881,-0.7219014167785645,2.849639892578125
1712834617535715000,6.959715087890625,-1.083585500717163,1.6878910064697266,5.890230655670166
1712834617555715300,6.97971533203125,4.5083513259887695,5.3794050216674805,7.68590784072876
1712834617575715300,6.99971533203125,3.875649929046631,5.139498710632324,7.079383850097656
1712834617595715300,7.01971533203125,-2.768768072128296,-2.4253506660461426,0.489654541015625
1712834617615715300,7.03971533203125,-9.058439254760742,-4.1055474281311035,2.553729295730591
1712834617635715300,7.05971533203125,-10.392507553100586,5.457974433898926,14.747369766235352
1712834617655715000,7.079715087890625,-10.058568954467773,4.900515556335449,14.041435241699219
1712834617675715000,7.099715087890625,9.041656494140625,4.435320854187012,4.568821907043457
1712834617695715000,7.119715087890625,9.548920631408691,4.33091926574707,4.813272953033447
1712834617715715000,7.139715087890625,4.258774757385254,3.2630434036254883,4.879166603088379
1712834617735715000,7.159715087890625,1.1646320819854736,5.166306495666504,5.509217739105225
1712834617755715000,7.179715087890625,1.5554919242858887,5.009919166564941,5.385087490081787
1712834617775715000,7.199715087890625,1.1532561779022217,3.4844818115234375,0.9096522331237793
1712834617795715000,7.219715087890625,0.9268156290054321,2.3108577728271484,-3.36690616607666
1712834617815715000,7.239715087890625,1.1367204189300537,2.2346067428588867,-3.506770610809326
1712834617835715000,7.259715087890625,0.46088993549346924,0.13670063018798828,-2.5212221145629883
1712834617855715000,7.279715087890625,1.5017056465148926,-0.321075439453125,-0.8888461589813232
1712834617875715000,7.299715087890625,2.1436054706573486,-0.32190895080566406,1.4668254852294922
1712834617895715000,7.319715087890625,2.3729143142700195,-0.09963035583496094,2.511995792388916
1712834617915715300,7.33971533203125,2.0148022174835205,0.3122224807739258,1.7450453042984009
1712834617935715300,7.35971533203125,1.8741705417633057,0.3353919982910156,1.6810792684555054
1712834617955715300,7.37971533203125,0.6163418292999268,0.1058340072631836,0.7434738874435425
1712834617975715300,7.39971533203125,0.1433563232421875,-0.14034652709960938,0.1470017433166504
1712834617995715300,7.41971533203125,-0.031018495559692383,-0.6528816223144531,-0.5162515640258789
1712834618015715000,7.439715087890625,-0.14331579208374023,-1.1955299377441406,-0.87485671043396
1712834618035715000,7.459715087890625,-0.08955669403076172,-1.4855923652648926,-1.0266950130462646
1712834618055715300,7.47971533203125,-0.21124553680419922,-1.4468045234680176,-1.037896752357483
1712834618075715300,7.49971533203125,0.1476609706878662,-1.3337812423706055,-1.9467499256134033
1712834618095715300,7.51971533203125,0.05124068260192871,-0.958613395690918,-2.207810401916504
1712834618115715300,7.53971533203125,-0.17583274841308594,-0.9098234176635742,-2.1228981018066406
1712834618135715300,7.55971533203125,-0.1394486427307129,-1.4336752891540527,-1.7331370115280151
1712834618155715000,7.579715087890625,0.0948331356048584,-1.3921613693237305,-1.7159583568572998
1712834618175715000,7.599715087890625,0.009459733963012695,-1.364302635192871,-1.772335171699524
1712834618195715000,7.619715087890625,-0.16428923606872559,-0.8206615447998047,-2.2616159915924072
1712834618215715000,7.639715087890625,-0.37757253646850586,-1.0739960670471191,-2.074202060699463
1712834618235715000,7.659715087890625,-0.26154136657714844,-1.3164024353027344,-1.6890850067138672
1712834618255715000,7.679715087890625,-0.2671530246734619,-1.320302963256836,-1.7424871921539307
1712834618275715000,7.699715087890625,-0.2087562084197998,-0.7266397476196289,-1.4419790506362915
1712834618295715000,7.719715087890625,-0.1631772518157959,-0.7500467300415039,-1.473482370376587
1712834618315715000,7.739715087890625,0.03632020950317383,-0.31088829040527344,-0.29258066415786743
1712834618335715000,7.759715087890625,0.11518645286560059,-0.3454761505126953,-0.30609697103500366
1712834618355715000,7.779715087890625,0.15189552307128906,-0.7194375991821289,0.3311247229576111
1712834618375715000,7.799715087890625,0.18919658660888672,-0.6841621398925781,1.7119512557983398
1712834618395715000,7.819715087890625,0.32058119773864746,-0.7331123352050781,1.7219711542129517
1712834618415715300,7.83971533203125,0.3924136161804199,-0.6071290969848633,1.9903209209442139
1712834618435715300,7.85971533203125,0.2013092041015625,-0.14975643157958984,1.6783485412597656
1712834618455715300,7.87971533203125,0.23687076568603516,-0.14844226837158203,1.8056137561798096
1712834618475715300,7.89971533203125,0.3935737609863281,-0.1872711181640625,1.8893694877624512
1712834618495715300,7.91971533203125,0.21188020706176758,0.47032928466796875,1.6905027627944946
1712834618515715000,7.939715087890625,-0.19845819473266602,1.0281429290771484,0.8547146916389465
1712834618535715000,7.959715087890625,-0.20236897468566895,1.386031150817871,0.6169486045837402
1712834618555715300,7.97971533203125,0.07655501365661621,1.1272602081298828,1.1909607648849487
1712834618575715300,7.99971533203125,1.2845227718353271,0.6121339797973633,1.4211280345916748
1712834618595715300,8.01971533203125,1.3418188095092773,0.6302433013916016,1.5729265213012695
1712834618615715300,8.03971533203125,0.6273722648620605,1.0993881225585938,2.006223201751709
1712834618635715300,8.05971533203125,0.781735897064209,1.1893806457519531,2.229583978652954
1712834618655715000,8.079715087890625,1.3599891662597656,1.0093994140625,2.4500174522399902
1712834618675715000,8.099715087890624,1.3134465217590332,1.0352468490600586,2.5076944828033447
1712834618695715000,8.119715087890626,1.6256208419799805,0.4813070297241211,2.809351682662964
1712834618715715000,8.139715087890625,0.1590726375579834,2.2493438720703125,3.5311431884765625
1712834618735715000,8.159715087890625,0.12721729278564453,2.2486867904663086,3.4986681938171387
1712834618755715000,8.179715087890624,-2.2717483043670654,1.8174676895141602,3.2069296836853027
1712834618775715000,8.199715087890626,-2.265428304672241,1.8085269927978516,3.178217887878418
1712834618795715000,8.219715087890625,-1.1172528266906738,1.3313713073730469,2.8172225952148438
1712834618815715000,8.239715087890625,-0.8676285743713379,2.145421028137207,1.126580834388733
1712834618835715000,8.259715087890624,-2.8249967098236084,2.4360179901123047,0.38429951667785645
1712834618855715000,8.279715087890626,-0.001584768295288086,0.0027217864990234375,-2.4838008880615234
1712834618875715000,8.299715087890625,-0.025901317596435547,0.1565561294555664,-2.0649943351745605
1712834618895715000,8.319715087890625,2.256131887435913,0.3256406784057617,-5.361835479736328
1712834618915715300,8.33971533203125,-2.5557022094726562,-1.8541312217712402,-7.857751846313477
1712834618935715300,8.35971533203125,-3.0007572174072266,1.052450180053711,-3.4476561546325684
1712834618955715300,8.37971533203125,-3.503716468811035,0.36893463134765625,-0.31207704544067383
1712834618975715300,8.39971533203125,-3.4762179851531982,-0.2570915222167969,4.899253845214844
1712834618995715300,8.41971533203125,-4.033434867858887,-0.7683343887329102,8.179980278015137
1712834619015715000,8.439715087890624,-3.855294704437256,-3.165348529815674,8.075789451599121
1712834619035715000,8.459715087890626,-4.007455348968506,-3.4738802909851074,6.749637126922607
1712834619055715300,8.47971533203125,-4.059094429016113,-2.810061454772949,3.9049324989318848
1712834619075715300,8.49971533203125,-3.2576818466186523,-1.4007468223571777,0.7728042602539062
1712834619095715300,8.51971533203125,-1.8711087703704834,-0.6246342658996582,-2.3760933876037598
1712834619115715300,8.53971533203125,-0.9259051084518433,-0.8939995765686035,-5.132414817810059
1712834619135715300,8.55971533203125,-2.458503246307373,0.7260627746582031,-6.396862030029297
1712834619155715000,8.579715087890625,-2.571547508239746,1.7785377502441406,-6.029067039489746
1712834619175715000,8.599715087890624,-2.446430206298828,1.6326847076416016,-6.476872444152832
1712834619195715000,8.619715087890626,-3.59482479095459,0.18430233001708984,-4.168622970581055
1712834619215715000,8.639715087890625,-3.5207018852233887,0.18855762481689453,-4.103593349456787
1712834619235715000,8.659715087890625,-2.917794942855835,2.418874740600586,-1.5553667545318604
1712834619255715000,8.679715087890624,0.1322462558746338,0.7609453201293945,3.205456495285034
1712834619275715000,8.699715087890626,-2.4510421752929688,1.7418012619018555,4.111936092376709
1712834619295715000,8.719715087890625,-6.881812572479248,4.800036430358887,12.053770065307617
1712834619315715000,8.739715087890625,-5.465891361236572,2.3384828567504883,15.2532377243042
1712834619335715000,8.759715087890624,1.42963707447052,2.245637893676758,10.266813278198242
1712834619355715000,8.779715087890626,4.802311420440674,2.5149459838867188,7.731109619140625
1712834619375715000,8.799715087890625,3.9854161739349365,2.150012969970703,6.078052997589111
1712834619395715000,8.819715087890625,1.244566798210144,1.7504920959472656,4.348032474517822
1712834619415715300,8.83971533203125,-1.1730101108551025,1.577606201171875,2.052581787109375
1712834619435715300,8.85971533203125,-2.2413716316223145,1.3746261596679688,-1.3980751037597656
1712834619455715300,8.87971533203125,-2.1123642921447754,0.8521595001220703,-4.512283802032471
1712834619475715300,8.89971533203125,-0.9327666163444519,-0.1656637191772461,-4.985230445861816
1712834619495715300,8.91971533203125,-1.0259933471679688,-0.15114212036132812,-4.981153964996338
1712834619515715000,8.939715087890624,0.35431969165802,-0.45464611053466797,-2.4033775329589844
1712834619535715000,8.959715087890626,1.494870662689209,-0.7446956634521484,0.21081995964050293
1712834619555715300,8.97971533203125,1.8839993476867676,-1.2210569381713867,2.5982298851013184
1712834619575715300,8.99971533203125,1.2930643558502197,-0.7162322998046875,2.3694000244140625
1712834619595715300,9.01971533203125,1.153061866760254,-0.6922836303710938,2.32002592086792
1712834619615715300,9.03971533203125,0.006975650787353516,-0.15499305725097656,1.5172399282455444
1712834619635715300,9.05971533203125,-0.11975836753845215,-0.12267780303955078,1.518905520439148
1712834619655715000,9.079715087890625,-0.5503756999969482,-0.13542938232421875,1.0958234071731567
1712834619675715000,9.099715087890624,-0.6682758331298828,-0.20816421508789062,-0.1164318323135376
1712834619695715000,9.119715087890626,-0.7589285373687744,-0.18309688568115234,-0.12520837783813477
1712834619715715000,9.139715087890625,-0.3381989002227783,-0.3930215835571289,0.057741403579711914
1712834619735715000,9.159715087890625,0.04271101951599121,-0.5582008361816406,0.39578789472579956
1712834619755715000,9.179715087890624,-0.018335819244384766,-0.5447120666503906,0.35316866636276245
1712834619775715000,9.199715087890626,0.30929040908813477,-0.8533334732055664,0.24617767333984375
1712834619795715000,9.219715087890625,0.2340681552886963,-0.8233890533447266,-0.05899834632873535
1712834619815715000,9.239715087890625,0.23032784461975098,-0.8227481842041016,-0.06359279155731201
1712834619835715000,9.259715087890624,-0.06901383399963379,-1.2110567092895508,-0.5248957872390747
1712834619855715000,9.279715087890626,-0.07979559898376465,-1.1381454467773438,-0.7278196811676025
1712834619875715000,9.299715087890625,-0.02188253402709961,-1.1537532806396484,-0.7060509920120239
1712834619895715000,9.319715087890625,-0.12163090705871582,-0.7920846939086914,-0.7575254440307617
1712834619915715300,9.33971533203125,-0.41094470024108887,-0.44347476959228516,-0.1295766830444336
1712834619935715300,9.35971533203125,-0.3062288761138916,-0.49158287048339844,0.15366411209106445
1712834619955715300,9.37971533203125,0.12089180946350098,-0.6520786285400391,0.549545407295227
1712834619975715300,9.39971533203125,0.6838970184326172,-0.37123680114746094,0.7017195820808411
1712834619995715300,9.41971533203125,0.8174388408660889,-0.3892850875854492,0.7964848875999451
1712834620015715000,9.439715087890624,0.4075174331665039,0.07970046997070312,0.5974026918411255
1712834620035715000,9.459715087890626,0.09281563758850098,0.48581790924072266,0.06352424621582031
1712834620055715300,9.47971533203125,0.07740306854248047,0.587646484375,0.09389889240264893
1712834620075715300,9.49971533203125,-0.1390061378479004,0.6294984817504883,0.6626168489456177
1712834620095715300,9.51971533203125,0.228721022605896,0.7702035903930664,1.2313649654388428
1712834620115715300,9.53971533203125,0.30403733253479004,0.7821760177612305,1.340240240097046
1712834620135715300,9.55971533203125,1.0713547468185425,0.5070438385009766,1.9627538919448853
1712834620155715000,9.579715087890625,1.9666725397109985,0.21277713775634766,2.665517568588257
1712834620175715000,9.599715087890624,1.999617099761963,0.23945903778076172,2.783931255340576
1712834620195715000,9.619715087890626,1.5353866815567017,1.265228271484375,3.388277292251587
1712834620215715000,9.639715087890625,1.4192523956298828,1.1042747497558594,3.269512176513672
1712834620235715000,9.659715087890625,1.4553961753845215,1.1091394424438477,3.3040878772735596
1712834620255715000,9.679715087890624,1.3503808975219727,1.2135505676269531,4.062100887298584
1712834620275715000,9.699715087890626,2.014057159423828,1.4978618621826172,4.912507057189941
1712834620295715000,9.719715087890625,1.717523217201233,2.5219802856445312,3.185802459716797
1712834620315715000,9.739715087890625,0.9612154960632324,2.719912528991699,0.6834176778793335
1712834620335715000,9.759715087890624,-0.015655517578125,4.329931259155273,-0.22433996200561523
1712834620355715000,9.779715087890626,-1.7631070613861084,2.1311216354370117,-1.284306287765503
1712834620375715000,9.799715087890625,0.7741963863372803,1.8571147918701172,-0.8320508003234863
1712834620395715000,9.819715087890625,1.185561180114746,2.984315872192383,-2.0839600563049316
1712834620415715300,9.83971533203125,-1.6101539134979248,-0.220001220703125,-3.3064661026000977
1712834620435715300,9.85971533203125,-2.659045934677124,-0.47594547271728516,-2.771925210952759
1712834620455715300,9.87971533203125,-3.296349048614502,-0.3023529052734375,-1.3260281085968018
1712834620475715300,9.89971533203125,-3.8730287551879883,-1.8422670364379883,-1.9426367282867432
1712834620495715300,9.91971533203125,-3.6303274631500244,-2.141669273376465,-1.8835780620574951
1712834620515715000,9.939715087890624,-3.6634111404418945,-2.034109592437744,-0.7041378021240234
1712834620535715000,9.959715087890626,-3.7129783630371094,-2.0460386276245117,0.4824404716491699
1712834620555715300,9.97971533203125,-3.893806219100952,-0.8348250389099121,1.89717698097229
1712834620575715300,9.99971533203125,-3.188746929168701,-0.2716226577758789,1.0579380989074707
1712834620595715300,10.01971533203125,-1.9897137880325317,-0.6696267127990723,0.6523582935333252
1712834620615715300,10.03971533203125,-1.0517830848693848,-0.4883279800415039,0.4472208023071289
1712834620635715300,10.05971533203125,-0.6531641483306885,-1.4030847549438477,-1.5608186721801758
1712834620655715000,10.079715087890625,-1.3185651302337646,-1.765324592590332,-3.3634142875671387
1712834620675715000,10.099715087890624,-2.0045416355133057,-1.3896541595458984,-3.829371929168701
1712834620695715000,10.119715087890626,-1.6223119497299194,-0.667719841003418,-3.052384376525879
1712834620715715000,10.139715087890625,-0.875626802444458,-0.052103519439697266,-1.5032610893249512
1712834620735715000,10.159715087890625,-0.7570649981498718,0.2685518264770508,-0.10434389114379883
1712834620755715000,10.179715087890624,-0.5014346837997437,0.963986873626709,1.4278221130371094
1712834620775715000,10.199715087890626,0.12867367267608643,1.2668542861938477,2.2908942699432373
1712834620795715000,10.219715087890625,-0.2313317060470581,1.3274798393249512,2.2578070163726807
1712834620815715000,10.239715087890625,-2.1310291290283203,0.38530826568603516,2.4347472190856934
1712834620835715000,10.259715087890624,-2.3552165031433105,-0.1437997817993164,3.1138463020324707
1712834620855715000,10.279715087890626,-2.3392739295959473,-0.8263206481933594,2.8587000370025635
1712834620875715000,10.299715087890625,-4.373660087585449,-0.06824111938476562,1.5480115413665771
1712834620895715000,10.319715087890625,-3.792387008666992,0.5399837493896484,1.0611660480499268
1712834620915715300,10.33971533203125,-3.7977705001831055,0.29282188415527344,0.5768091678619385
1712834620935715300,10.35971533203125,-2.8638174533843994,-0.10891151428222656,-3.0437848567962646
1712834620955715300,10.37971533203125,-3.823079824447632,-2.2846908569335938,-4.5497541427612305
1712834620975715300,10.39971533203125,-2.251901149749756,0.9139957427978516,-4.040860176086426
1712834620995715300,10.41971533203125,2.979151725769043,4.8862810134887695,-2.046308755874634
1712834621015715000,10.439715087890624,5.004184722900391,2.3621435165405273,1.9910461902618408
1712834621035715000,10.459715087890626,0.20129919052124023,0.6241731643676758,7.188910007476807
1712834621055715300,10.47971533203125,-5.8945417404174805,3.7519655227661133,11.508440971374512
1712834621075715300,10.49971533203125,-5.767270565032959,3.613088607788086,11.19747257232666
1712834621095715300,10.51971533203125,0.22953903675079346,3.9040231704711914,9.646627426147461
1712834621115715300,10.53971533203125,0.23941147327423096,3.8196678161621094,9.367117881774902
1712834621135715300,10.55971533203125,5.432367324829102,2.496854782104492,6.400051116943359
1712834621155715000,10.579715087890625,1.1994072198867798,2.1974849700927734,4.646937370300293
1712834621175715000,10.599715087890624,-0.3832741975784302,0.7966718673706055,3.2905168533325195
1712834621195715000,10.619715087890626,-1.0140769481658936,0.6889743804931641,0.6745781898498535
1712834621215715000,10.639715087890625,-1.612443208694458,1.0606956481933594,-2.278902530670166
1712834621235715000,10.659715087890625,-1.1035730838775635,0.2910633087158203,-3.989597797393799
1712834621255715000,10.679715087890624,-1.1635686159133911,0.28479766845703125,-4.048829555511475
1712834621275715000,10.699715087890626,0.196274995803833,-0.40886688232421875,-2.019639015197754
1712834621295715000,10.719715087890625,0.04451775550842285,-0.4032325744628906,-2.0875790119171143
1712834621315715000,10.739715087890625,0.8712712526321411,-0.16762542724609375,0.2962775230407715
1712834621335715000,10.759715087890624,0.7166458368301392,0.15285778045654297,0.8360161781311035
1712834621355715000,10.779715087890626,0.39342987537384033,0.5217752456665039,0.9961659908294678
1712834621375715000,10.799715087890625,0.3786066770553589,-0.1626434326171875,1.1008210182189941
1712834621395715000,10.819715087890625,0.2104644775390625,-0.1342029571533203,1.0531368255615234
1712834621415715300,10.83971533203125,0.35044145584106445,-0.9761390686035156,1.0091640949249268
1712834621435715300,10.85971533203125,0.04852652549743652,-1.0989046096801758,0.5959075093269348
1712834621455715300,10.87971533203125,-0.045326948165893555,-0.9662580490112305,0.21767091751098633
1712834621475715300,10.89971533203125,-0.13936138153076172,-0.5993461608886719,0.004688143730163574
1712834621495715300,10.91971533203125,-0.11313962936401367,-0.5117025375366211,0.02091360092163086
1712834621515715000,10.939715087890624,-0.060732364654541016,-0.7783279418945312,0.37953871488571167
1712834621535715000,10.959715087890626,-0.11969637870788574,-0.7631511688232422,0.3616437315940857
1712834621555715300,10.97971533203125,0.11903262138366699,-1.0105180740356445,0.6989026069641113
1712834621575715300,10.99971533203125,0.06125283241271973,-0.8990812301635742,0.8565425872802734
1712834621595715300,11.01971533203125,0.18305277824401855,-1.178999900817871,0.9478417634963989
1712834621615715300,11.03971533203125,0.10092043876647949,-0.845362663269043,0.8369950652122498
1712834621635715300,11.05971533203125,0.1986994743347168,-1.0133981704711914,0.2528954744338989
1712834621655715000,11.079715087890625,0.2877466678619385,-1.204808235168457,-0.14531099796295166
1712834621675715000,11.099715087890624,0.20398855209350586,-0.8052129745483398,-0.3136465549468994
1712834621695715000,11.119715087890626,0.3025667667388916,-0.8222160339355469,-0.25235211849212646
1712834621715715000,11.139715087890625,0.2073071002960205,-0.5587329864501953,-0.2512962818145752
1712834621735715000,11.159715087890625,0.3277566432952881,-0.7209358215332031,-0.11566674709320068
1712834621755715000,11.179715087890624,-0.10935354232788086,0.7051420211791992,0.013465404510498047
1712834621775715000,11.199715087890626,0.21762585639953613,0.8445091247558594,0.03524792194366455
1712834621795715000,11.219715087890625,0.3218957185745239,0.8403816223144531,0.12111485004425049
1712834621815715000,11.239715087890625,0.6172454357147217,1.2495908737182617,1.0388059616088867
1712834621835715000,11.259715087890624,1.215740442276001,1.3906307220458984,2.312715768814087
1712834621855715000,11.279715087890626,1.300708532333374,1.0518178939819336,2.822740316390991
1712834621875715000,11.299715087890625,1.727645754814148,0.7118444442749023,3.0428466796875
1712834621895715000,11.319715087890625,1.7282235622406006,0.7349605560302734,3.1320109367370605
1712834621915715300,11.33971533203125,2.1866953372955322,0.6082820892333984,2.9244565963745117
1712834621935715300,11.35971533203125,2.1844167709350586,0.6222190856933594,2.9731593132019043
1712834621955715300,11.37971533203125,0.9056843519210815,1.2489614486694336,2.351135492324829
1712834621975715300,11.39971533203125,0.8741724491119385,1.2503118515014648,2.334865093231201
1712834621995715300,11.41971533203125,0.42386019229888916,1.5775833129882812,4.544732093811035
1712834622015715000,11.439715087890624,0.6493529081344604,0.9502620697021484,4.962167263031006
1712834622035715000,11.459715087890626,0.31833183765411377,1.6171722412109375,3.4463067054748535
1712834622055715300,11.47971533203125,-0.6354734897613525,2.210012435913086,0.34481489658355713
1712834622075715300,11.49971533203125,-1.2859801054000854,2.1131811141967773,-2.0808725357055664
1712834622095715300,11.51971533203125,-1.3609429597854614,2.1564407348632812,-1.9786419868469238
1712834622115715300,11.53971533203125,-3.2233781814575195,-0.35988712310791016,-3.771841287612915
1712834622135715300,11.55971533203125,1.0085294246673584,0.4329509735107422,-3.9079551696777344
1712834622155715000,11.579715087890625,0.9478509426116943,0.595789909362793,-3.4618031978607178
1712834622175715000,11.599715087890624,-2.1324970722198486,-3.856597900390625,-6.969707489013672
1712834622195715000,11.619715087890626,-3.412139415740967,-2.8614706993103027,-6.267238140106201
1712834622215715000,11.639715087890625,-3.2945284843444824,-2.62498140335083,-5.786478042602539
1712834622235715000,11.659715087890625,-3.4709134101867676,-0.9884061813354492,-4.6900739669799805
1712834622255715000,11.679715087890624,-4.36203145980835,0.9173946380615234,0.7047281265258789
1712834622275715000,11.699715087890626,-2.8057701587677,0.5880413055419922,3.1893701553344727
1712834622295715000,11.719715087890625,-3.283000946044922,-0.03746604919433594,5.989327907562256
1712834622315715000,11.739715087890625,-4.445765495300293,-1.422091007232666,7.170541286468506
1712834622335715000,11.759715087890624,-3.4920568466186523,-2.1311049461364746,6.50673246383667
1712834622355715000,11.779715087890626,-2.7059695720672607,-1.1706061363220215,5.126051902770996
1712834622375715000,11.799715087890625,-2.6577036380767822,0.17824125289916992,3.1308860778808594
1712834622395715000,11.819715087890625,-2.486213207244873,-0.013076305389404297,2.9185996055603027
1712834622415715300,11.83971533203125,-1.5993393659591675,1.3480606079101562,-3.1782150268554688
1712834622435715300,11.85971533203125,-2.3695578575134277,0.7881994247436523,-4.818410396575928
1712834622455715300,11.87971533203125,-3.0250937938690186,-0.6842975616455078,-4.809236526489258
1712834622475715300,11.89971533203125,-3.2442240715026855,1.1561431884765625,-2.5055959224700928
1712834622495715300,11.91971533203125,1.4237375259399414,4.717024803161621,0.27185773849487305
1712834622515715000,11.939715087890624,6.629533290863037,3.681307792663574,0.3789346218109131
1712834622535715000,11.959715087890626,2.290955066680908,0.31842899322509766,-0.27132105827331543
1712834622555715300,11.97971533203125,-5.752764701843262,-1.8426165580749512,0.1506640911102295
1712834622575715300,11.99971533203125,-9.486968994140625,2.602066993713379,7.815537452697754
1712834622595715300,12.01971533203125,-9.26042366027832,2.5065479278564453,16.689149856567383
1712834622615715300,12.03971533203125,2.1456804275512695,2.5849552154541016,10.275796890258789
1712834622635715300,12.05971533203125,9.16494369506836,0.8939342498779297,8.46776294708252
1712834622655715000,12.079715087890625,6.976452827453613,1.5155067443847656,8.703784942626953
1712834622675715000,12.099715087890624,2.6791586875915527,4.0240936279296875,6.425978660583496
1712834622695715000,12.119715087890626,-1.2076318264007568,3.8381729125976562,2.2952091693878174
1712834622715715000,12.139715087890625,-1.018772006034851,3.79824161529541,2.2265260219573975
1712834622735715000,12.159715087890625,-2.3863539695739746,1.3177032470703125,-4.567855358123779
1712834622755715000,12.179715087890624,-1.0290286540985107,0.5510988235473633,-4.0698370933532715
1712834622775715000,12.199715087890626,0.20579326152801514,0.2883424758911133,-2.1338894367218018
1712834622795715000,12.219715087890625,0.8912479877471924,0.5860166549682617,-0.26243770122528076
1712834622815715000,12.239715087890625,1.3939144611358643,0.18835926055908203,1.2496602535247803
1712834622835715000,12.259715087890624,1.9073594808578491,-0.45740509033203125,2.6173644065856934
1712834622855715000,12.279715087890626,1.9956903457641602,-0.8352174758911133,3.276505947113037
1712834622875715000,12.299715087890625,1.4898655414581299,-0.6460142135620117,2.330413341522217
1712834622895715000,12.319715087890625,0.5954933166503906,-0.9345579147338867,1.0825834274291992
1712834622915715300,12.33971533203125,0.027109384536743164,-1.1392135620117188,0.15836358070373535
1712834622935715300,12.35971533203125,-0.2710154056549072,-0.941431999206543,-0.5800213813781738
1712834622955715300,12.37971533203125,-0.46555471420288086,-0.5525531768798828,-1.1329984664916992
1712834622975715300,12.39971533203125,-0.5363743305206299,-0.32180309295654297,-0.9945473670959473
1712834622995715300,12.41971533203125,-0.2924230098724365,-0.4291048049926758,-0.256866455078125
1712834623015715000,12.439715087890624,0.1707303524017334,-0.47319698333740234,0.5699703693389893
1712834623035715000,12.459715087890626,0.4674091339111328,-0.18004989624023438,1.1478855609893799
1712834623055715300,12.47971533203125,0.5449628829956055,-0.30130481719970703,1.3405847549438477
1712834623075715300,12.49971533203125,0.46695423126220703,-0.7397298812866211,1.3355274200439453
1712834623095715300,12.51971533203125,0.5198755264282227,-0.973240852355957,1.1459702253341675
1712834623115715300,12.53971533203125,0.5127658843994141,-0.9013204574584961,0.540178656578064
1712834623135715300,12.55971533203125,0.49602627754211426,-0.8929176330566406,0.5572922229766846
1712834623155715000,12.579715087890625,-0.001313924789428711,-0.20138931274414062,-0.7118089199066162
1712834623175715000,12.599715087890624,-0.0999908447265625,-0.3496541976928711,-0.6945908069610596
1712834623195715000,12.619715087890626,0.22711610794067383,-0.6149978637695312,-0.10056138038635254
1712834623215715000,12.639715087890625,0.528639554977417,-0.7903537750244141,0.23588240146636963
1712834623235715000,12.659715087890625,0.5651066303253174,-0.9258995056152344,0.5120905041694641
1712834623255715000,12.679715087890624,0.6106240749359131,-0.9386053085327148,0.5290670990943909
1712834623275715000,12.699715087890626,0.13020968437194824,-1.1563453674316406,0.6047378778457642
1712834623295715000,12.719715087890625,-0.11041450500488281,-1.0094938278198242,0.14100134372711182
1712834623315715000,12.739715087890625,-0.2542421817779541,-0.9807243347167969,-0.3059866428375244
1712834623335715000,12.759715087890624,-0.10516047477722168,-0.837559700012207,-0.5476462841033936
1712834623355715000,12.779715087890626,0.24555134773254395,-0.5833492279052734,-0.9167388677597046
1712834623375715000,12.799715087890625,-0.000087738037109375,0.2609291076660156,-1.2668533325195312
1712834623395715000,12.819715087890625,0.11471796035766602,0.25294971466064453,-1.1669697761535645
1712834623415715300,12.83971533203125,-0.4299889802932739,1.9177742004394531,-1.1912529468536377
1712834623435715300,12.85971533203125,-0.3452538251876831,1.9155817031860352,-1.1161682605743408
1712834623455715300,12.87971533203125,0.33066248893737793,1.8421688079833984,0.3801429271697998
1712834623475715300,12.89971533203125,1.6426875591278076,0.6445722579956055,3.030174732208252
1712834623495715300,12.91971533203125,1.65291428565979,0.4368581771850586,3.9217910766601562
1712834623515715000,12.939715087890624,1.4832146167755127,0.6543369293212891,4.043792724609375
1712834623535715000,12.959715087890626,0.7710385322570801,1.2073631286621094,3.6440658569335938
1712834623555715300,12.97971533203125,0.8004701137542725,1.2099952697753906,3.675626754760742
1712834623575715300,12.99971533203125,0.4115891456604004,1.3528738021850586,3.475900173187256
1712834623595715300,13.01971533203125,0.7340096235275269,1.4901981353759766,4.990151405334473
1712834623615715300,13.03971533203125,1.0519695281982422,2.3056249618530273,5.172636985778809
1712834623635715300,13.05971533203125,1.0379796028137207,2.282425880432129,5.0733323097229
1712834623655715000,13.079715087890625,-0.07755732536315918,2.2029476165771484,2.040515899658203
1712834623675715000,13.099715087890624,-0.14980053901672363,2.2005386352539062,1.965461015701294
1712834623695715000,13.119715087890626,-0.6219052076339722,2.018134117126465,-0.24005579948425293
1712834623715715000,13.139715087890625,-3.32228684425354,2.1828136444091797,0.460473895072937
1712834623735715000,13.159715087890625,-1.4297698736190796,0.7347402572631836,-1.3974318504333496
1712834623755715000,13.179715087890624,-1.5955921411514282,0.8427658081054688,-1.1514453887939453
1712834623775715000,13.199715087890626,-1.0292781591415405,-0.3105144500732422,-5.552463531494141
1712834623795715000,13.219715087890625,-2.83091139793396,-1.2508673667907715,-5.035444259643555
1712834623815715000,13.239715087890625,-2.210415840148926,-1.644418716430664,-4.264313697814941
1712834623835715000,13.259715087890624,-2.301215171813965,-1.511824607849121,-4.038471221923828
1712834623855715000,13.279715087890626,-4.663537979125977,-3.907327651977539,-2.732259750366211
1712834623875715000,13.299715087890625,-4.077447891235352,-2.090167999267578,-1.326289176940918
1712834623895715000,13.319715087890625,-2.962128162384033,0.030411720275878906,2.0914509296417236
1712834623915715300,13.33971533203125,-2.301280975341797,-0.6371393203735352,4.085512638092041
1712834623935715300,13.35971533203125,-2.658291816711426,-1.0279960632324219,2.4458913803100586
1712834623955715300,13.37971533203125,-3.221505880355835,-0.7577662467956543,0.06439399719238281
1712834623975715300,13.39971533203125,-3.565664768218994,-0.24940967559814453,-0.8884134292602539
1712834623995715300,13.41971533203125,-3.609243869781494,-1.2086763381958008,-1.299443244934082
1712834624015715000,13.439715087890624,-3.3676438331604004,-1.4687280654907227,-0.5184164047241211
1712834624035715000,13.459715087890626,-3.6378536224365234,-1.509599208831787,-0.4088759422302246
1712834624055715300,13.47971533203125,-3.5051984786987305,-1.6889595985412598,-0.7004668712615967
1712834624075715300,13.49971533203125,-4.134061336517334,-0.9354910850524902,-0.7481191158294678
1712834624095715300,13.51971533203125,-4.673305511474609,0.5762701034545898,-2.3115293979644775
1712834624115715300,13.53971533203125,-4.422131538391113,0.3797636032104492,-2.745384454727173
1712834624135715300,13.55971533203125,-7.656301975250244,-1.424572467803955,-2.215116024017334
1712834624155715000,13.579715087890625,-7.396047592163086,-1.475766658782959,-2.2384166717529297
1712834624175715000,13.599715087890624,1.1427441835403442,3.9901437759399414,-0.6868164539337158
1712834624195715000,13.619715087890626,1.078420639038086,4.056948661804199,-0.48117923736572266
1712834624215715000,13.639715087890625,-2.773143768310547,3.7494449615478516,4.560980796813965
1712834624235715000,13.659715087890625,-2.48211669921875,3.88358211517334,9.537823677062988
1712834624255715000,13.679715087890624,-2.393764019012451,3.8185901641845703,9.374590873718262
1712834624275715000,13.699715087890626,-0.07704424858093262,2.2684926986694336,15.140473365783691
1712834624295715000,13.719715087890625,6.4384918212890625,3.024216651916504,5.643060684204102
1712834624315715000,13.739715087890625,5.608800411224365,3.6094350814819336,4.148143768310547
1712834624335715000,13.759715087890624,2.7025365829467773,2.943577766418457,3.999143123626709
1712834624355715000,13.779715087890626,-0.0912560224533081,2.1789932250976562,2.590228319168091
1712834624375715000,13.799715087890625,-1.9041568040847778,2.1720590591430664,-1.0596288442611694
1712834624395715000,13.819715087890625,-1.8396525382995605,2.1516857147216797,-1.1357866525650024
1712834624415715300,13.83971533203125,-2.5515389442443848,1.0387382507324219,-4.83545446395874
1712834624435715300,13.85971533203125,0.41499054431915283,-0.6848592758178711,-0.9630972146987915
1712834624455715300,13.87971533203125,0.23234689235687256,-0.6687030792236328,-0.9977246522903442
1712834624475715300,13.89971533203125,2.098893404006958,-0.6222524642944336,3.363194704055786
1712834624495715300,13.91971533203125,1.3924418687820435,-0.03734779357910156,3.319082260131836
1712834624515715000,13.939715087890624,0.2573913335800171,0.15739822387695312,2.375380516052246
1712834624535715000,13.959715087890626,-0.212302565574646,-0.1671581268310547,1.5971404314041138
1712834624555715300,13.97971533203125,-0.3573184013366699,-0.1333141326904297,1.6206284761428833
1712834624575715300,13.99971533203125,-0.054767608642578125,-1.0338506698608398,1.5149211883544922
1712834624595715300,14.01971533203125,0.19593381881713867,-1.235651969909668,1.2108349800109863
1712834624615715300,14.03971533203125,0.059217214584350586,-0.9909429550170898,0.8200883269309998
1712834624635715300,14.05971533203125,-0.1889655590057373,-0.3648567199707031,0.28931915760040283
1712834624655715000,14.079715087890625,-0.6036398410797119,0.3541097640991211,-0.16852104663848877
1712834624675715000,14.099715087890624,-0.686823844909668,0.37592029571533203,-0.1804577112197876
1712834624695715000,14.119715087890626,-0.6932322978973389,0.1854724884033203,-0.39409124851226807
1712834624715715000,14.139715087890625,0.40595412254333496,-0.6836776733398438,-0.16759014129638672
1712834624735715000,14.159715087890625,0.34615182876586914,-0.6720438003540039,-0.21351194381713867
1712834624755715000,14.179715087890624,0.35972094535827637,-0.6113758087158203,-0.44837963581085205
1712834624775715000,14.199715087890626,-0.46189332008361816,-0.3862752914428711,-1.4619005918502808
1712834624795715000,14.219715087890625,-0.3553578853607178,-0.6501827239990234,-1.5542129278182983
1712834624815715000,14.239715087890625,-0.0717003345489502,-0.7477188110351562,-0.9382848739624023
1712834624835715000,14.259715087890624,0.3584587574005127,-0.8956613540649414,-0.5368545055389404
1712834624855715000,14.279715087890626,0.46797800064086914,-0.753570556640625,-0.434889554977417
1712834624875715000,14.299715087890625,0.18906712532043457,-0.5732336044311523,-0.26824963092803955
1712834624895715000,14.319715087890625,-0.20702409744262695,-0.47710323333740234,0.2945220470428467
1712834624915715300,14.33971533203125,-0.21548819541931152,-0.7048454284667969,0.8478399515151978
1712834624935715300,14.35971533203125,0.13284778594970703,-1.0453357696533203,0.9412158727645874
1712834624955715300,14.37971533203125,0.09209561347961426,-1.106943130493164,1.0825189352035522
1712834624975715300,14.39971533203125,0.00007939338684082031,-0.6818408966064453,1.096509337425232
1712834624995682000,14.41968212890625,-0.26967692375183105,-0.18333911895751953,0.821793794631958
1712834625015648500,14.4396484375,-0.2465651035308838,0.9598264694213867,0.27519357204437256
1712834625035615000,14.459614990234375,-0.1331312656402588,0.9543237686157227,0.3813701868057251
1712834625055581700,14.479581787109375,-0.2443530559539795,2.5688581466674805,-0.08174324035644531
1712834625075548400,14.49954833984375,0.28060007095336914,2.3108291625976562,1.1172864437103271
1712834625095515100,14.51951513671875,1.2756088972091675,1.2622013092041016,2.582085609436035
1712834625115481600,14.539481689453124,1.2930388450622559,1.2915191650390625,2.712003231048584
1712834625135448300,14.5594482421875,2.0525925159454346,0.7619848251342773,3.4986987113952637
1712834625155414800,14.579414794921876,2.0340490341186523,0.45963001251220703,2.869102716445923
1712834625175381500,14.599381591796876,1.6157516241073608,0.8768711090087891,2.2478742599487305
1712834625195348200,14.61934814453125,0.8336012363433838,1.272995948791504,0.9722295999526978
1712834625215314700,14.639314697265625,-0.5206866264343262,1.4480829238891602,1.1504517793655396
1712834625235281400,14.659281494140625,-0.7985281944274902,1.1153583526611328,3.2882261276245117
1712834625255248100,14.679248046875,0.4625113010406494,0.7455949783325195,5.755191802978516
1712834625275215000,14.699215087890625,0.34560418128967285,0.7394704818725586,5.635074615478516
1712834625295181800,14.719181884765625,1.5650267601013184,0.9531736373901367,6.250783920288086
1712834625315148300,14.739148193359375,-0.9638164043426514,3.003662109375,2.1772115230560303
1712834625335115000,14.759114990234375,-1.9753897190093994,3.3654422760009766,-1.6186232566833496
1712834625355081700,14.779081787109375,-2.0320546627044678,3.4078540802001953,-1.521043300628662
1712834625375048400,14.79904833984375,-2.560920476913452,-0.576481819152832,-1.3113644123077393
1712834625395015200,14.81901513671875,0.7085633277893066,1.7044010162353516,0.7941439151763916
1712834625414981600,14.838981689453124,1.3541371822357178,0.7903566360473633,-2.6001930236816406
1712834625434948400,14.8589482421875,-1.054521918296814,-1.0326366424560547,-5.129427909851074
1712834625454915000,14.8789150390625,-3.8477611541748047,-1.2327260971069336,-5.695867538452148
1712834625474881800,14.8988818359375,-4.342904090881348,-1.2688369750976562,-3.7679104804992676
1712834625494848300,14.91884814453125,-3.4728026390075684,-1.5805692672729492,-1.1102299690246582
1712834625514814700,14.938814697265625,-3.3929526805877686,-2.1184253692626953,0.6183700561523438
1712834625534781400,14.958781494140625,-3.148090124130249,-1.9957036972045898,1.4411802291870117
1712834625554748200,14.978748046875,-3.324742317199707,-1.9603075981140137,1.6827309131622314
1712834625574715000,14.99871484375,-3.336817741394043,-1.514909267425537,2.401888132095337
1712834625594715000,15.01871484375,-2.946495771408081,-1.3413434028625488,2.4873592853546143
1712834625614715000,15.03871484375,-2.801506996154785,-1.4000935554504395,2.1093430519104004
1712834625634715000,15.05871484375,-2.9598119258880615,-1.4209809303283691,1.2684078216552734
1712834625654715000,15.07871484375,-2.4157400131225586,-1.1944332122802734,0.4871039390563965
1712834625674715000,15.09871484375,-2.2696259021759033,-1.3846426010131836,0.2447676658630371
1712834625694715000,15.11871484375,-3.274693727493286,0.31938743591308594,-0.6656732559204102
1712834625714715000,15.13871484375,-3.20497727394104,0.0831594467163086,-1.1176304817199707
1712834625734715000,15.15871484375,-3.1504132747650146,0.9880914688110352,-5.508230209350586
1712834625754715000,15.17871484375,-5.655067443847656,0.9652223587036133,-5.221883296966553
1712834625774715100,15.198715087890625,-3.8286032676696777,-1.378758430480957,-2.2534337043762207
1712834625794715100,15.218715087890626,-3.7352070808410645,-1.4230680465698242,-2.3417303562164307
1712834625814715100,15.238715087890625,-0.5323907136917114,4.122145652770996,1.1367069482803345
1712834625834715100,15.258715087890625,-0.6355613470077515,4.17833137512207,1.2549790143966675
1712834625854715100,15.278715087890625,-1.2302868366241455,1.6619491577148438,1.0901669263839722
1712834625874715000,15.29871484375,-1.2633154392242432,3.4930334091186523,5.773959159851074
1712834625894715000,15.31871484375,-6.1427459716796875,0.794154167175293,18.173940658569336
1712834625914715000,15.33871484375,-2.9770314693450928,3.414175033569336,13.57522201538086
1712834625934715000,15.35871484375,-2.9127349853515625,3.344161033630371,13.35169506072998
1712834625954715000,15.37871484375,5.603021144866943,2.8162155151367188,4.5850958824157715
1712834625974715000,15.39871484375,2.856890916824341,2.1461477279663086,5.163474082946777
1712834625994715000,15.41871484375,0.06813371181488037,2.0717239379882812,4.1452131271362305
1712834626014715000,15.43871484375,-1.8290661573410034,1.5939645767211914,1.402287244796753
1712834626034715000,15.45871484375,-1.9065691232681274,1.200704574584961,-1.7225552797317505
1712834626054715000,15.47871484375,-0.6783907413482666,0.3602294921875,-2.7635390758514404
1712834626074715000,15.49871484375,0.327328085899353,-0.5742425918579102,-1.96061110496521
1712834626094715000,15.51871484375,1.018680214881897,-0.7999095916748047,-0.27426302433013916
1712834626114715000,15.53871484375,1.1905086040496826,-0.3556394577026367,1.0105772018432617
1712834626134715000,15.55871484375,1.0844565629959106,-0.3423490524291992,0.9709967970848083
1712834626154715000,15.57871484375,0.7289938926696777,0.10277652740478516,2.076176166534424
1712834626174715000,15.59871484375,0.4775266647338867,-0.2409534454345703,2.294005870819092
1712834626194715000,15.61871484375,0.5622856616973877,-0.560755729675293,2.3082611560821533
1712834626214715000,15.63871484375,0.5473551750183105,-0.43564605712890625,2.0207977294921875
1712834626234715000,15.65871484375,0.38132572174072266,-0.49989986419677734,1.2968628406524658
1712834626254715000,15.67871484375,0.045209646224975586,-0.5612010955810547,0.4503359794616699
1712834626274715100,15.698715087890625,-0.20084667205810547,-0.621190071105957,-0.250374436378479
1712834626294715100,15.718715087890626,-0.19049835205078125,-0.7821693420410156,-0.6125239133834839
1712834626314715100,15.738715087890625,-0.01721644401550293,-0.7849502563476562,-0.7284795045852661
1712834626334715100,15.758715087890625,0.10068869590759277,-0.7954797744750977,-0.7670637369155884
1712834626354715100,15.778715087890625,0.045745134353637695,-0.6719141006469727,-0.6587131023406982
1712834626374715000,15.79871484375,0.005766630172729492,-0.4962577819824219,-0.698798656463623
1712834626394715000,15.81871484375,-0.05134391784667969,-0.4229097366333008,-0.7241828441619873
1712834626414715000,15.83871484375,-0.08318448066711426,-0.7559547424316406,-0.6912813186645508
1712834626434715000,15.85871484375,-0.04983878135681152,-0.7766046524047852,-0.40877199172973633
1712834626454715000,15.87871484375,-0.11236929893493652,-0.4613962173461914,-0.16314935684204102
1712834626474715000,15.89871484375,-0.1729111671447754,-0.28365135192871094,0.07111215591430664
1712834626494715000,15.91871484375,-0.17661547660827637,-0.3623971939086914,0.2654290199279785
1712834626514715000,15.93871484375,-0.19627165794372559,-0.3989267349243164,0.514804482460022
1712834626534715000,15.95871484375,-0.29241204261779785,-0.33852481842041016,0.6967278718948364
1712834626554715000,15.97871484375,-0.21287131309509277,-0.3450202941894531,0.7930377721786499
1712834626574715000,15.99871484375,-0.03435325622558594,-0.5203313827514648,1.0145719051361084
1712834626594715000,16.01871484375,0.3148043155670166,-0.41718292236328125,1.2875269651412964
1712834626614715000,16.03871484375,0.5487978458404541,0.11705780029296875,1.5273985862731934
1712834626634715000,16.05871484375,0.12614846229553223,1.7511053085327148,0.213434100151062
1712834626654715000,16.07871484375,-0.29875755310058594,2.204667091369629,0.1320486068725586
1712834626674715000,16.09871484375,-0.2819826602935791,1.8203907012939453,0.859237551689148
1712834626694715000,16.11871484375,0.39652836322784424,1.0685415267944336,1.488675832748413
1712834626714715000,16.13871484375,0.7701971530914307,0.32018470764160156,2.1940696239471436
1712834626734715000,16.15871484375,0.744888424873352,0.3540782928466797,2.3028016090393066
1712834626754715000,16.17871484375,1.0632836818695068,-0.40032196044921875,2.7260313034057617
1712834626774715100,16.198715087890626,1.4280645847320557,-0.12478923797607422,2.8002429008483887
1712834626794715100,16.218715087890626,0.5342285633087158,1.6111259460449219,2.5762171745300293
1712834626814715100,16.238715087890625,0.6608562469482422,1.9496870040893555,3.4003772735595703
1712834626834715100,16.258715087890625,1.2784178256988525,2.4139204025268555,3.9077792167663574
1712834626854715100,16.278715087890625,1.2455542087554932,2.4194650650024414,3.8997044563293457
1712834626874715000,16.29871484375,-1.567561149597168,1.8688087463378906,3.0605270862579346
1712834626894715000,16.31871484375,-2.4179577827453613,1.5798921585083008,-0.34834814071655273
1712834626914715000,16.33871484375,-2.4338130950927734,1.590489387512207,-0.3259921073913574
1712834626934715000,16.35871484375,-2.16764497756958,1.610647201538086,-0.9695634841918945
1712834626954715000,16.37871484375,-3.5950241088867188,-0.24166584014892578,-0.4795355796813965
1712834626974715000,16.39871484375,1.1641771793365479,0.10094833374023438,-3.769197463989258
1712834626994715000,16.41871484375,0.08188557624816895,-3.8242549896240234,-8.661871910095215
1712834627014715000,16.43871484375,-4.872317314147949,-6.181600570678711,-8.57133674621582
1712834627034715000,16.45871484375,-4.492731094360352,-5.920378684997559,-7.95842981338501
1712834627054715000,16.47871484375,-4.7165374755859375,1.6413469314575195,-5.203370094299316
1712834627074715000,16.49871484375,-4.258552551269531,0.6270732879638672,1.954097032546997
1712834627094715000,16.51871484375,-3.7473087310791016,0.5789756774902344,9.565835952758789
1712834627114715000,16.53871484375,-3.7381796836853027,-2.371274471282959,11.128335952758789
1712834627134715000,16.55871484375,-3.8532803058624268,-2.5340843200683594,10.842019081115723
1712834627154715000,16.57871484375,-5.325916290283203,-2.5017709732055664,5.16455078125
1712834627174715000,16.59871484375,-5.07607889175415,-2.7689294815063477,4.79380464553833
1712834627194715000,16.61871484375,-4.155885696411133,0.41768741607666016,-5.190763473510742
1712834627214715000,16.63871484375,-2.6643288135528564,-0.46840667724609375,-8.589893341064453
1712834627234715000,16.65871484375,-1.0241062641143799,1.391831398010254,-6.594099998474121
1712834627254715000,16.67871484375,-0.9953829050064087,1.3176355361938477,-6.810311317443848
1712834627274715100,16.698715087890626,7.055135250091553,3.191862106323242,-0.8686833381652832
1712834627294715100,16.718715087890626,0.572798490524292,-0.22375202178955078,0.7227308750152588
1712834627314715100,16.738715087890625,0.4380168914794922,-0.21084213256835938,0.6874010562896729
1712834627334715100,16.758715087890625,-9.920162200927734,4.852502822875977,10.848455429077148
1712834627354715100,16.778715087890625,-8.232071876525879,5.664175033569336,12.986568450927734
1712834627374715000,16.79871484375,6.089120864868164,1.7420072555541992,9.373802185058594
1712834627394715000,16.81871484375,6.038010120391846,1.7140302658081055,9.199930191040039
1712834627414715000,16.83871484375,5.820324897766113,2.578579902648926,6.84367036819458
1712834627434715000,16.85871484375,2.3026132583618164,4.070450782775879,4.150515556335449
1712834627454715000,16.87871484375,2.3839731216430664,4.0537214279174805,4.107370376586914
1712834627474715000,16.89871484375,-1.0066884756088257,1.491708755493164,-1.6856664419174194
1712834627494715000,16.91871484375,-1.1090331077575684,1.0606441497802734,-3.0068001747131348
1712834627514715000,16.93871484375,-1.1682833433151245,1.0629606246948242,-3.028201103210449
1712834627534715000,16.95871484375,0.2354574203491211,-0.6199569702148438,-0.7327947616577148
1712834627554715000,16.97871484375,0.8942755460739136,-0.7405519485473633,0.6839854121208191
1712834627574715000,16.99871484375,1.563300609588623,-0.9702577590942383,2.031198740005493
1712834627594715000,17.01871484375,1.554012656211853,-0.902623176574707,2.927150249481201
1712834627614715000,17.03871484375,0.7706836462020874,-0.1470956802368164,2.6905674934387207
1712834627634715000,17.05871484375,0.1748216152191162,0.20679569244384766,2.061954975128174
1712834627654715000,17.07871484375,0.006237030029296875,-0.06204032897949219,1.5251882076263428
1712834627674715000,17.09871484375,-0.12270951271057129,-0.03339385986328125,1.5280975103378296
1712834627694715000,17.11871484375,-0.37585151195526123,-0.4473381042480469,0.8230606317520142
1712834627714715000,17.13871484375,-0.6273376941680908,-0.5180788040161133,-0.10037720203399658
1712834627734715000,17.15871484375,-0.6924939155578613,-0.45091915130615234,-0.6679720878601074
1712834627754715000,17.17871484375,-0.30358171463012695,-0.46665382385253906,-0.24287748336791992
1712834627774715100,17.198715087890626,-0.1472012996673584,-0.4982786178588867,0.14698100090026855
1712834627794715100,17.218715087890626,-0.03823971748352051,-0.7308158874511719,0.6644913554191589
1712834627814715100,17.238715087890625,-0.026983022689819336,-0.8224468231201172,1.1438511610031128
1712834627834715100,17.258715087890625,0.03276205062866211,-0.7161445617675781,1.4303697347640991
1712834627854715100,17.278715087890625,0.03700518608093262,-0.8063516616821289,1.4179668426513672
1712834627874715000,17.29871484375,0.07977485656738281,-0.8018312454223633,1.5068743228912354
1712834627894715000,17.31871484375,0.09148383140563965,-0.9559192657470703,1.1568220853805542
1712834627914715000,17.33871484375,-0.14046549797058105,-1.0022907257080078,0.29504382610321045
1712834627934715000,17.35871484375,-0.11380195617675781,-0.7309303283691406,-0.06564521789550781
1712834627954715000,17.37871484375,-0.1988353729248047,0.4656400680541992,-0.36232709884643555
1712834627974715000,17.39871484375,-0.2922699451446533,1.7160911560058594,-0.8939766883850098
1712834627994715000,17.41871484375,-0.10810685157775879,1.472762107849121,-1.052886724472046
1712834628014715000,17.43871484375,0.48656129837036133,0.7354640960693359,-0.3259410858154297
1712834628034715000,17.45871484375,1.2609355449676514,0.23176097869873047,0.8208794593811035
1712834628054715000,17.47871484375,1.4531878232955933,0.2288351058959961,1.33351731300354
1712834628074715000,17.49871484375,1.0678914785385132,0.1574411392211914,1.4026825428009033
1712834628094715000,17.51871484375,1.07862389087677,-0.0074615478515625,1.5324164628982544
1712834628114715000,17.53871484375,1.845271348953247,-0.10443973541259766,1.7391011714935303
1712834628134715000,17.55871484375,2.610255718231201,0.5134744644165039,1.4244786500930786
1712834628154715000,17.57871484375,2.576491117477417,0.5245552062988281,1.4404326677322388
1712834628174715000,17.59871484375,1.8497025966644287,0.9891471862792969,0.6626548767089844
1712834628194715000,17.61871484375,-0.1914917230606079,1.738194465637207,-0.3603665828704834
1712834628214715000,17.63871484375,-1.0245766639709473,1.8179311752319336,-0.5754697322845459
1712834628234715000,17.65871484375,-0.8884533643722534,0.7659463882446289,0.6374578475952148
1712834628254715000,17.67871484375,-0.5298213958740234,1.164398193359375,3.192805290222168
1712834628274715100,17.698715087890626,-1.2569448947906494,1.1476860046386719,3.2987477779388428
1712834628294715100,17.718715087890626,0.1495680809020996,2.2184906005859375,3.2564258575439453
1712834628314715100,17.738715087890625,1.3457818031311035,1.7341232299804688,4.211846351623535
1712834628334715100,17.758715087890625,-0.7429330348968506,2.0693464279174805,1.8776836395263672
1712834628354715100,17.778715087890625,-0.807410717010498,2.102017402648926,1.9422202110290527
1712834628374715000,17.79871484375,4.134723663330078,1.9873437881469727,-4.449455261230469
1712834628394715000,17.81871484375,0.709815263748169,0.2045907974243164,-7.211368083953857
1712834628414715000,17.83871484375,-5.286581039428711,-0.7170982360839844,-7.223321914672852
1712834628434715000,17.85871484375,-5.39733362197876,-0.5539283752441406,-6.911629676818848
1712834628454715000,17.87871484375,-6.6656341552734375,-1.38502836227417,-4.4828290939331055
1712834628474715000,17.89871484375,-5.411069869995117,-1.6250638961791992,-0.23981237411499023
1712834628494715000,17.91871484375,-5.826624870300293,-2.8511576652526855,5.725409030914307
1712834628514715000,17.93871484375,-4.753198146820068,-4.678653717041016,4.148900985717773
1712834628534715000,17.95871484375,-5.805780410766602,-4.181114196777344,1.9332921504974365
1712834628554715000,17.97871484375,-5.539504051208496,-4.342987060546875,1.7501132488250732
1712834628574715000,17.99871484375,-4.194079875946045,-0.9642524719238281,-3.349592447280884
1712834628594715000,18.01871484375,-4.356575012207031,0.5390052795410156,-4.819450855255127
1712834628614715000,18.03871484375,-3.3045010566711426,1.9845094680786133,-5.790727615356445
1712834628634715000,18.05871484375,-2.6991963386535645,0.8435707092285156,-4.637617588043213
1712834628654715000,18.07871484375,-0.7982852458953857,1.1272773742675781,-2.5539841651916504
1712834628674715000,18.09871484375,2.333580493927002,3.852214813232422,-1.8351235389709473
1712834628694715000,18.11871484375,4.968044281005859,5.037825584411621,-1.1790616512298584
1712834628714715000,18.13871484375,-1.3037079572677612,1.3688240051269531,-4.034251689910889
1712834628734715000,18.15871484375,-12.105941772460938,-0.1977376937866211,-5.99008846282959
1712834628754715000,18.17871484375,-15.701014518737793,7.621530532836914,20.396907806396484
1712834628774715100,18.198715087890626,-8.502269744873047,5.526062965393066,25.420066833496094
1712834628794715100,18.218715087890626,12.849595069885254,1.0220975875854492,10.905587196350098
1712834628814715100,18.238715087890625,11.55522632598877,-1.4696502685546875,11.567291259765625
1712834628834715100,18.258715087890625,5.132203102111816,0.11585140228271484,12.243152618408203
1712834628854715100,18.278715087890625,0.9890626668930054,2.8235082626342773,8.653759956359863
1712834628874715000,18.29871484375,-5.095402717590332,5.628517150878906,2.496507406234741
1712834628894715000,18.31871484375,-7.393155097961426,2.3533334732055664,-8.374777793884277
1712834628914715000,18.33871484375,-4.629521369934082,-1.7052001953125,-11.592033386230469
1712834628934715000,18.35871484375,-4.715476989746094,-1.6954784393310547,-11.588539123535156
1712834628954715000,18.37871484375,0.5020128488540649,-0.45565223693847656,-0.7175828218460083
1712834628974715000,18.39871484375,2.8380722999572754,-0.39530086517333984,3.3241066932678223
1712834628994715000,18.41871484375,2.862722873687744,-0.961268424987793,5.033023834228516
1712834629014715000,18.43871484375,1.8212345838546753,-0.5257129669189453,4.770086765289307
1712834629034715000,18.45871484375,0.8144373893737793,0.48434925079345703,3.6990103721618652
1712834629054715000,18.47871484375,0.1360921859741211,0.7054052352905273,2.528700828552246
1712834629074715000,18.49871484375,0.03579139709472656,0.7271413803100586,2.521484375
1712834629094715000,18.51871484375,-0.5430264472961426,-0.10135269165039062,-0.3484838008880615
1712834629114715000,18.53871484375,-0.6761529445648193,-0.6305208206176758,-1.5295249223709106
1712834629134715000,18.55871484375,-0.572670578956604,-0.9872283935546875,-1.8799089193344116
1712834629154715000,18.57871484375,-0.35700130462646484,-1.300851821899414,-1.501550316810608
1712834629174715000,18.59871484375,-0.11581158638000488,-1.3864226341247559,-0.8086444139480591
1712834629194715000,18.61871484375,-0.08846569061279297,-1.2064247131347656,-0.10881054401397705
1712834629214715000,18.63871484375,-0.32547664642333984,-0.7389612197875977,0.392875075340271
1712834629234715000,18.65871484375,-0.5036273002624512,-0.3599872589111328,0.6974687576293945
1712834629254715000,18.67871484375,-0.5187277793884277,-0.3213920593261719,0.8030781149864197
1712834629274715100,18.698715087890626,-0.2239220142364502,-0.46042346954345703,0.7225149869918823
1712834629294715100,18.718715087890626,0.0559382438659668,-0.7007980346679688,0.5775885581970215
1712834629314715100,18.738715087890625,0.325106143951416,-0.6715612411499023,0.164009690284729
1712834629334715100,18.758715087890625,0.30320024490356445,-0.22814178466796875,-0.5213477611541748
1712834629354715100,18.778715087890625,0.4200468063354492,-0.2379617691040039,-0.43529021739959717
1712834629374715000,18.79871484375,-0.1081322431564331,0.4678993225097656,-1.265959620475769
1712834629394715000,18.81871484375,-0.07975137233734131,0.8891000747680664,-1.2747085094451904
1712834629414715000,18.83871484375,-0.06546640396118164,1.4147796630859375,-0.5294208526611328
1712834629434715000,18.85871484375,0.13806140422821045,1.8267993927001953,0.3834606409072876
1712834629454715000,18.87871484375,0.5123988389968872,1.9572105407714844,1.4223569631576538
1712834629474715000,18.89871484375,1.2513705492019653,1.2269325256347656,2.741656541824341
1712834629494715000,18.91871484375,2.2293612957000732,0.161163330078125,3.532360076904297
1712834629514715000,18.93871484375,2.4983787536621094,-0.2398357391357422,3.6622366905212402
1712834629534715000,18.95871484375,1.9560037851333618,0.22473716735839844,3.273477554321289
1712834629554715000,18.97871484375,1.2823768854141235,1.1288948059082031,2.9882068634033203
1712834629574715000,18.99871484375,0.664948582649231,0.9600982666015625,2.898729085922241
1712834629594715000,19.01871484375,0.6568828821182251,1.2055692672729492,3.6142578125
1712834629614715000,19.03871484375,0.5806512832641602,1.2007827758789062,3.5417256355285645
1712834629634715000,19.05871484375,0.5869767665863037,1.3023223876953125,3.940009355545044
1712834629654715000,19.07871484375,-0.0969691276550293,2.1947431564331055,1.3650641441345215
1712834629674715000,19.09871484375,-1.4765276908874512,4.28646183013916,-1.0363585948944092
1712834629694715000,19.11871484375,-6.7914018630981445,1.1011629104614258,-2.543393850326538
1712834629714715000,19.13871484375,-1.321588397026062,1.5453338623046875,-0.3109612464904785
1712834629734715000,19.15871484375,-1.383698582649231,1.6118526458740234,-0.130601167678833
1712834629754715000,19.17871484375,-0.34894847869873047,-1.6826505661010742,-7.379621982574463
1712834629774715100,19.198715087890626,-4.977776527404785,-4.148149013519287,-8.472391128540039
1712834629794715100,19.218715087890626,-6.267892837524414,-4.973057746887207,-5.899088382720947
1712834629814715100,19.238715087890625,-6.014402866363525,-2.8373069763183594,-3.095306396484375
1712834629834715100,19.258715087890625,-6.348112106323242,0.1955413818359375,-0.20308399200439453
1712834629854715100,19.278715087890625,-5.197443008422852,1.4521923065185547,3.97274112701416
1712834629874715000,19.29871484375,-3.467282295227051,-1.3866896629333496,5.587823867797852
1712834629894715000,19.31871484375,-3.4331226348876953,-1.4964661598205566,5.3979902267456055
1712834629914715000,19.33871484375,-4.184292316436768,-2.0711917877197266,5.037656307220459
1712834629934715000,19.35871484375,-3.9595019817352295,-2.2427330017089844,4.78986930847168
1712834629954715000,19.37871484375,-6.615262985229492,-0.25123023986816406,-4.997806072235107
1712834629974715000,19.39871484375,-7.048414707183838,-1.4902219772338867,-6.197147369384766
1712834629994715000,19.41871484375,-4.415609359741211,-1.9715332984924316,-5.501901626586914
1712834630014715000,19.43871484375,-1.8645954132080078,4.870046615600586,-3.62860369682312
1712834630034715000,19.45871484375,5.928629398345947,8.331036567687988,1.279759407043457
1712834630054715000,19.47871484375,5.630484580993652,8.424583435058594,1.4456946849822998
1712834630074715000,19.49871484375,-4.090590476989746,-2.3353066444396973,-0.40702390670776367
1712834630094715000,19.51871484375,-3.9613208770751953,-2.3515639305114746,-0.39388513565063477
1712834630114715000,19.53871484375,-9.113438606262207,5.860380172729492,15.899103164672852
1712834630134715000,19.55871484375,3.0008161067962646,2.890148162841797,13.126038551330566
1712834630154715000,19.57871484375,9.24570083618164,0.8072624206542969,11.21306324005127
1712834630174715000,19.59871484375,6.616379737854004,0.8939523696899414,9.398006439208984
1712834630194715000,19.61871484375,6.723658084869385,0.8616037368774414,9.320014953613281
1712834630214715000,19.63871484375,3.2889962196350098,3.351980209350586,5.941742420196533
1712834630234715000,19.65871484375,-1.9906939268112183,3.358036994934082,-3.2304465770721436
1712834630254715000,19.67871484375,-1.6836525201797485,1.352273941040039,-5.635917663574219
1712834630274715100,19.698715087890626,-0.6551549434661865,0.03207111358642578,-4.2081756591796875
1712834630294715100,19.718715087890626,0.2945178151130676,-0.2543315887451172,-1.1390469074249268
1712834630314715100,19.738715087890625,1.1106243133544922,-0.7980012893676758,1.4702993631362915
1712834630334715100,19.758715087890625,0.9131388664245605,-0.7864103317260742,1.3907063007354736
1712834630354715100,19.778715087890625,1.213504672050476,-1.5830607414245605,2.8853673934936523
1712834630374715000,19.79871484375,0.7831007242202759,-0.7975282669067383,2.4847493171691895
1712834630394715000,19.81871484375,0.06947362422943115,0.45163917541503906,2.105440378189087
1712834630414715000,19.83871484375,-0.8306338787078857,1.1471261978149414,1.4017523527145386
1712834630434715000,19.85871484375,-0.9561219215393066,1.172018051147461,1.3865694999694824
1712834630454715000,19.87871484375,-1.2960929870605469,0.7344322204589844,0.5655586123466492
1712834630474715000,19.89871484375,-0.39611005783081055,-0.6223545074462891,-0.33693838119506836
1712834630494715100,19.918715087890625,-0.009325504302978516,-0.9839878082275391,-0.502128005027771
1712834630514715100,19.938715087890625,-0.09224224090576172,-0.9690761566162109,-0.5504264831542969
1712834630534715100,19.958715087890624,0.0796651840209961,-1.3980631828308105,-0.09459114074707031
1712834630554715100,19.978715087890624,0.03320908546447754,-1.3068218231201172,-0.4633955955505371
1712834630574714600,19.998714599609375,-0.020695209503173828,-1.2536182403564453,-0.9783861637115479
1712834630594714600,20.018714599609375,-0.26345300674438477,-1.132044792175293,-0.9924458265304565
1712834630614714600,20.038714599609374,-0.23499107360839844,-1.139958381652832,-0.9923585653305054
1712834630634714600,20.058714599609374,-0.4653341770172119,-0.6713657379150391,-0.6389256715774536
1712834630654714600,20.078714599609373,-0.36672377586364746,-0.8152132034301758,-0.5470012426376343
1712834630674714600,20.098714599609377,0.016463279724121094,-1.0679054260253906,-0.44597697257995605
1712834630694714600,20.118714599609376,0.12906956672668457,-1.21661376953125,-0.5157755613327026
1712834630714714600,20.138714599609376,0.03032374382019043,-0.9966840744018555,-0.3994632959365845
1712834630734714600,20.158714599609375,0.16289567947387695,-1.0169448852539062,-0.33680880069732666
1712834630754714600,20.178714599609375,0.0016682147979736328,-0.6642742156982422,0.07391691207885742
1712834630774715000,20.19871484375,-0.2302166223526001,2.6557741165161133,-0.3344486951828003
1712834630794715000,20.21871484375,-1.0107367038726807,4.375741958618164,-0.2167961597442627
1712834630814715000,20.23871484375,-0.1648179292678833,3.0684499740600586,1.0966209173202515
1712834630834715000,20.25871484375,1.2385388612747192,1.852677345275879,3.842966079711914
1712834630854715000,20.27871484375,2.8431215286254883,0.08554267883300781,5.2913055419921875
1712834630874714000,20.298714111328124,3.246446371078491,-1.311793327331543,5.102933883666992
1712834630894714000,20.318714111328124,3.3789215087890625,-1.539914608001709,4.18438196182251
1712834630914714000,20.338714111328127,3.341874361038208,-1.52219820022583,4.2311811447143555
1712834630934714000,20.358714111328126,2.709911823272705,-0.7484292984008789,2.398040294647217
1712834630954714000,20.378714111328126,0.9243056774139404,2.3779239654541016,-0.49808597564697266
1712834630974714000,20.398714111328125,0.47323906421661377,2.7166481018066406,-1.0667176246643066
1712834630994714400,20.41871435546875,1.8629531860351562,2.770395278930664,0.2157118320465088
1712834631014714400,20.43871435546875,1.654677391052246,2.641216278076172,1.9788764715194702
1712834631034714400,20.45871435546875,-0.4271047115325928,2.1695852279663086,1.7942477464675903
1712834631054714400,20.47871435546875,-0.5816586017608643,2.2326011657714844,1.8573895692825317
1712834631074714000,20.498714111328123,-1.252764344215393,2.1099605560302734,2.439267635345459
1712834631094713600,20.518713623046875,-1.7253727912902832,2.4647388458251953,3.3998918533325195
1712834631114713600,20.538713623046874,-1.0215075016021729,0.37518882751464844,0.8722612857818604
1712834631134714000,20.558714111328126,-0.9697756767272949,1.295100212097168,-0.8534355163574219
1712834631154714000,20.578714111328125,-4.223774433135986,1.0983734130859375,-1.6603724956512451
1712834631174714400,20.59871435546875,-6.9575300216674805,-1.3768253326416016,-2.548172950744629
1712834631194714400,20.61871435546875,-6.781524181365967,-1.2968072891235352,-2.2667479515075684
1712834631214714000,20.638714111328124,-4.454739093780518,-4.393374443054199,-0.37775087356567383
1712834631234714000,20.658714111328123,-6.6735734939575195,-3.134361743927002,3.5058794021606445
1712834631254714000,20.678714111328127,-6.653397560119629,-3.1987805366516113,3.39475679397583
1712834631274714400,20.69871435546875,-1.3335191011428833,-2.3135433197021484,3.734511375427246
1712834631294714400,20.71871435546875,-1.9929239749908447,-3.219186782836914,0.7691226005554199
1712834631314714400,20.73871435546875,-2.41581654548645,-2.4845175743103027,-4.867030620574951
1712834631334714400,20.75871435546875,-3.442877769470215,-0.7506647109985352,-8.788753509521484
1712834631354714400,20.77871435546875,-3.247117042541504,-0.9489984512329102,-9.279509544372559
1712834631374714000,20.798714111328124,-4.2092461585998535,0.25910282135009766,-8.56173324584961
1712834631394714000,20.818714111328124,-2.3658366203308105,0.5333185195922852,-5.132147312164307
1712834631414714000,20.838714111328127,-0.9740158915519714,2.708284378051758,-3.0819997787475586
1712834631434714000,20.858714111328126,0.2266443967819214,1.7620725631713867,-3.426438570022583
1712834631454714000,20.878714111328126,-4.683438301086426,0.33216381072998047,-2.8691327571868896
1712834631474714400,20.89871435546875,-13.07516098022461,-0.8523216247558594,0.5332410335540771
1712834631494714400,20.91871435546875,-12.655022621154785,7.1952409744262695,12.555747985839844
1712834631514714400,20.93871435546875,-5.202864646911621,3.6853456497192383,20.71126365661621
1712834631534714400,20.95871435546875,8.698062896728516,2.455874443054199,17.35596466064453
1712834631554714400,20.97871435546875,10.377217292785645,0.23596668243408203,10.075448989868164
1712834631574714400,20.99871435546875,5.886469841003418,2.323023796081543,8.164955139160156
1712834631594714000,21.018714111328126,1.5516701936721802,4.333700180053711,5.360865116119385
1712834631614714000,21.038714111328126,1.6394097805023193,4.305621147155762,5.267375946044922
1712834631634714000,21.058714111328126,-1.1935443878173828,3.2341670989990234,0.7602254152297974
1712834631654714000,21.078714111328125,-3.2202720642089844,0.0648965835571289,-8.949810981750488
1712834631674714600,21.098714599609377,-3.313235282897949,0.0738515853881836,-8.985230445861816
1712834631694714600,21.118714599609376,-2.0413978099823,-1.2325458526611328,-5.842258453369141
1712834631714714600,21.138714599609376,-0.22167646884918213,-0.3419189453125,2.3750061988830566
1712834631734714400,21.15871435546875,0.35178983211517334,-0.3437166213989258,3.7816333770751953
1712834631754714400,21.17871435546875,0.2308645248413086,-0.3269948959350586,3.6947362422943115
1712834631774714600,21.198714599609374,0.6798040866851807,-0.8002815246582031,3.231981039047241
1712834631794714600,21.218714599609374,0.7014651298522949,-0.8726634979248047,2.947601318359375
1712834631814715100,21.238715087890625,0.6049518585205078,-0.8437395095825195,2.998281955718994
1712834631834715100,21.258715087890625,-0.1016244888305664,-0.8038702011108398,1.235207200050354
1712834631854715100,21.278715087890625,-0.4825422763824463,-0.6903743743896484,0.210030198097229
1712834631874714600,21.298714599609376,-0.6626032590866089,-0.06541633605957031,-0.598198652267456
1712834631894714600,21.318714599609375,-0.6961628198623657,-0.054633140563964844,-0.5849586725234985
1712834631914714600,21.338714599609375,-0.19450902938842773,0.04770660400390625,-0.8553366661071777
1712834631934714600,21.358714599609375,0.09606122970581055,-0.3201723098754883,-0.45717179775238037
1712834631954714600,21.378714599609374,0.558220624923706,-0.7875938415527344,-0.3583012819290161
1712834631974714600,21.398714599609374,0.7583088874816895,-1.0502662658691406,-0.3876352906227112
1712834631994714600,21.418714599609373,0.6829848289489746,-1.2831182479858398,-0.7182154655456543
1712834632014714600,21.438714599609376,0.42714667320251465,-1.4408836364746094,-1.0921084880828857
1712834632034714600,21.458714599609376,0.028256893157958984,-1.4440641403198242,-1.1667975187301636
1712834632054714600,21.478714599609376,-0.36557579040527344,-0.9932012557983398,-1.111133337020874
1712834632074714600,21.498714599609375,-0.2893643379211426,-1.0117130279541016,-1.0896302461624146
1712834632094714600,21.518714599609375,-0.5969275236129761,-0.6716508865356445,-0.7151622772216797
1712834632114714600,21.538714599609374,-0.47276008129119873,-0.7602691650390625,-0.3554939031600952
1712834632134714600,21.558714599609374,-0.04557180404663086,-0.6338605880737305,-0.14666080474853516
1712834632154714600,21.578714599609373,0.15280461311340332,-0.2993955612182617,0.43894141912460327
1712834632174714600,21.598714599609377,0.3671555519104004,0.2645120620727539,0.7206953763961792
1712834632194714600,21.618714599609376,0.13203096389770508,1.6984138488769531,0.3088555335998535
1712834632214714600,21.638714599609376,-0.420729398727417,2.5392446517944336,0.5115095376968384
1712834632234714600,21.658714599609375,-0.3397163152694702,2.461944580078125,1.2768200635910034
1712834632254714600,21.678714599609375,0.5097141265869141,1.7142715454101562,2.233203887939453
1712834632274715100,21.698715087890626,0.5211441516876221,1.7378578186035156,2.365903854370117
1712834632294715100,21.718715087890626,2.2126379013061523,0.44994544982910156,3.601231575012207
1712834632314715100,21.738715087890625,1.759364128112793,0.5396127700805664,3.5426080226898193
1712834632334715100,21.758715087890625,1.3570153713226318,0.6799783706665039,3.0993800163269043
1712834632354715100,21.778715087890625,1.0883044004440308,1.0447044372558594,2.2288668155670166
1712834632374714600,21.798714599609376,0.495151162147522,0.9350910186767578,1.5509817600250244
1712834632394714600,21.818714599609375,-0.04345834255218506,1.3403539657592773,2.8473799228668213
1712834632414714600,21.838714599609375,-0.11874854564666748,1.351853370666504,2.836390256881714
1712834632434714600,21.858714599609375,1.3263678550720215,0.91595458984375,4.63337516784668
1712834632454714600,21.878714599609374,0.14517545700073242,0.9393587112426758,3.5741591453552246
1712834632474714600,21.898714599609374,0.05497264862060547,0.9553680419921875,3.557401180267334
1712834632494714600,21.918714599609373,-0.8557473421096802,1.994593620300293,0.9133433103561401
1712834632514714600,21.938714599609376,-4.912820339202881,0.6742763519287109,-2.084397792816162
1712834632534714600,21.958714599609376,0.5817992687225342,1.6493730545043945,-0.26511478424072266
1712834632554714600,21.978714599609376,2.5931315422058105,2.344806671142578,-3.3576314449310303
1712834632574714600,21.998714599609375,2.4932305812835693,2.5487136840820312,-2.8274075984954834
1712834632594714600,22.018714599609375,-1.666643738746643,-0.6586508750915527,-7.238678932189941
1712834632614714600,22.038714599609374,-5.317702293395996,-4.107479095458984,-8.23810863494873
1712834632634714600,22.058714599609374,-5.197998046875,-0.3263840675354004,-3.979578971862793
1712834632654714600,22.078714599609373,-5.046308994293213,0.7474641799926758,0.6847376823425293
1712834632674714600,22.098714599609377,-5.109896183013916,0.8498115539550781,0.8229551315307617
1712834632694714600,22.118714599609376,-2.5386319160461426,-2.1641855239868164,7.892683506011963
1712834632714714600,22.138714599609376,-2.6374995708465576,-3.0322155952453613,6.446825981140137
1712834632734714600,22.158714599609375,-4.133382797241211,-1.6682806015014648,3.7562055587768555
1712834632754714600,22.178714599609375,-4.883700370788574,-0.2094736099243164,1.3112084865570068
1712834632774715100,22.198715087890626,-4.2592082023620605,-0.3892087936401367,-1.693748950958252
1712834632794715100,22.218715087890626,-4.288519382476807,0.15366172790527344,-4.6668195724487305
1712834632814715100,22.238715087890625,-3.7842307090759277,0.5651721954345703,-6.31028938293457
1712834632834715100,22.258715087890625,-3.89221453666687,-0.1827545166015625,-6.128756523132324
1712834632854715100,22.278715087890625,-2.9741370677948,2.710773468017578,-2.929487943649292
1712834632874714600,22.298714599609376,1.6308212280273438,4.274968147277832,0.5519769191741943
1712834632894714600,22.318714599609375,5.954353332519531,1.8812551498413086,2.245652675628662
1712834632914714600,22.338714599609375,0.7159531116485596,-1.4397387504577637,1.2924214601516724
1712834632934714600,22.358714599609375,-6.500002861022949,-1.4055166244506836,2.039320230484009
1712834632954714600,22.378714599609374,-8.882914543151855,4.8359527587890625,11.477007865905762
1712834632974714600,22.398714599609374,-7.128597736358643,3.832798957824707,13.947820663452148
1712834632994714600,22.418714599609373,3.537135601043701,2.7684593200683594,8.942527770996094
1712834633014714600,22.438714599609376,7.354402542114258,2.012526512145996,6.821185111999512
1712834633034714600,22.458714599609376,6.4599609375,2.3726282119750977,6.2734761238098145
1712834633054714600,22.478714599609376,3.388002395629883,3.040079116821289,5.101171016693115
1712834633074714600,22.498714599609375,-0.1412675380706787,2.7580642700195312,2.690372943878174
1712834633094714600,22.518714599609375,-0.06801676750183105,2.7428016662597656,2.6517333984375
1712834633114714600,22.538714599609374,-1.5207130908966064,0.9182357788085938,-3.8525891304016113
1712834633134714600,22.558714599609374,-1.0974771976470947,0.3524951934814453,-3.750211238861084
1712834633154714600,22.578714599609373,0.11312508583068848,-0.5706005096435547,-1.6018189191818237
1712834633174714600,22.598714599609377,-0.03457033634185791,-0.5571737289428711,-1.6506500244140625
1712834633194714600,22.618714599609376,1.9270073175430298,-1.4801092147827148,2.5488088130950928
1712834633214714600,22.638714599609376,1.7041898965835571,-1.3751640319824219,2.891695737838745
1712834633234714600,22.658714599609375,1.570578932762146,-1.3548707962036133,2.858238935470581
1712834633254714600,22.678714599609375,0.009333610534667969,0.5927333831787109,1.8756515979766846
1712834633274715100,22.698715087890626,-0.7927385568618774,1.023859977722168,1.3774617910385132
1712834633294715100,22.718715087890626,-0.9997541904449463,0.6723031997680664,0.8125933408737183
1712834633314715100,22.738715087890625,-1.1297821998596191,0.7047386169433594,0.8182729482650757
1712834633334715100,22.758715087890625,-0.7578461170196533,-0.028032302856445312,0.026114702224731445
1712834633354715100,22.778715087890625,-0.19973373413085938,-1.037445068359375,0.18726623058319092
1712834633374714600,22.798714599609376,0.6263246536254883,-2.0140204429626465,0.619140625
1712834633394714600,22.818714599609375,1.0683212280273438,-2.3314061164855957,0.5193490386009216
1712834633414714600,22.838714599609375,1.0185251235961914,-2.3216824531555176,0.47481220960617065
1712834633434714600,22.858714599609375,0.45273494720458984,-1.685072898864746,-1.0923069715499878
1712834633454714600,22.878714599609374,-0.25051069259643555,-1.207127571105957,-1.8087531328201294
1712834633474714600,22.898714599609374,-0.6441855430603027,-0.8363418579101562,-2.3190345764160156
1712834633494714600,22.918714599609373,-0.5255959033966064,-0.9443759918212891,-2.411783218383789
1712834633514714600,22.938714599609376,-0.4851222038269043,-0.959010124206543,-2.4392852783203125
1712834633534714600,22.958714599609376,-0.2805600166320801,-0.8529825210571289,-2.1043431758880615
1712834633554714600,22.978714599609376,-0.46616530418395996,-0.37906837463378906,-1.079308032989502
1712834633574714600,22.998714599609375,-0.7174557447433472,-0.14531326293945312,-0.683647871017456
1712834633594714600,23.018714599609375,-0.7813272476196289,-0.359130859375,-0.4555899500846863
1712834633614714600,23.038714599609374,-0.480621337890625,-0.3922595977783203,-0.14787089824676514
1712834633634714600,23.058714599609374,-0.3690497875213623,-0.4090576171875,-0.05297112464904785
1712834633654714600,23.078714599609373,0.04027700424194336,0.7726325988769531,1.2134175300598145
1712834633674714600,23.098714599609377,0.153153657913208,0.7614374160766602,1.3171379566192627
1712834633694714600,23.118714599609376,-0.2555350065231323,2.097505569458008,0.5317278504371643
1712834633714714600,23.138714599609376,0.20992052555084229,1.5519170761108398,1.7227368354797363
1712834633734714600,23.158714599609375,0.28996431827545166,1.556014060974121,1.8366624116897583
1712834633754714600,23.178714599609375,0.9579415321350098,0.838165283203125,3.198446273803711
1712834633774715100,23.198715087890626,0.9775084257125854,0.862457275390625,3.339108467102051
1712834633794715100,23.218715087890626,1.0112258195877075,0.7760381698608398,2.9312682151794434
1712834633814715100,23.238715087890625,1.6014078855514526,0.23970794677734375,2.4101719856262207
1712834633834715100,23.258715087890625,1.2326772212982178,1.1592159271240234,2.1357388496398926
1712834633854715100,23.278715087890625,0.518290638923645,2.0020971298217773,2.249077320098877
1712834633874714600,23.298714599609376,0.008388996124267578,1.8132200241088867,1.9359543323516846
1712834633894714600,23.318714599609375,0.2948039770126343,0.9170875549316406,2.511723041534424
1712834633914714600,23.338714599609375,1.0988044738769531,1.0150022506713867,3.6560661792755127
1712834633934714600,23.358714599609375,1.023594856262207,1.022831916809082,3.620635747909546
1712834633954714600,23.378714599609374,-0.7755584716796875,2.735301971435547,2.7768938541412354
1712834633974714600,23.398714599609374,-1.6255197525024414,3.0222015380859375,1.2931863069534302
1712834633994714600,23.418714599609373,-3.2187790870666504,3.7473936080932617,0.3212699890136719
1712834634014714600,23.438714599609376,-4.237958908081055,0.9345474243164062,-0.6796205043792725
1712834634034714600,23.458714599609376,-0.7638241052627563,1.4506292343139648,-2.967071533203125
1712834634054714600,23.478714599609376,-0.8255664110183716,1.5975189208984375,-2.5530171394348145
1712834634074714600,23.498714599609375,-4.819317817687988,-3.7924814224243164,-5.647799968719482
1712834634094714600,23.518714599609375,-4.433490753173828,-3.643991470336914,-4.851768493652344
1712834634114714600,23.538714599609374,-6.008821964263916,-3.890963554382324,-3.423428535461426
1712834634134714600,23.558714599609374,-6.379148483276367,-3.0073423385620117,0.6577599048614502
1712834634154714600,23.578714599609373,-5.831900596618652,-1.267740249633789,4.4131598472595215
1712834634174714600,23.598714599609377,-3.464768648147583,-1.6289663314819336,4.904384613037109
1712834634194714600,23.618714599609376,-1.9989359378814697,-2.9072866439819336,1.7236965894699097
1712834634214714600,23.638714599609376,-2.003092050552368,-2.7021360397338867,-2.212388038635254
1712834634234714600,23.658714599609375,-2.61488676071167,-0.8050880432128906,-6.472784042358398
1712834634254714600,23.678714599609375,-2.396450996398926,-0.9668331146240234,-6.895330905914307
1712834634274715100,23.698715087890626,-4.166330337524414,1.8444108963012695,-6.328959941864014
1712834634294715100,23.718715087890626,-3.597283124923706,1.9291200637817383,-2.8328378200531006
1712834634314715100,23.738715087890625,0.6884883642196655,1.9429616928100586,-0.8659899234771729
1712834634334715100,23.758715087890625,3.305487871170044,-0.11819934844970703,0.9525177478790283
1712834634354715100,23.778715087890625,-2.0190060138702393,-0.12015342712402344,5.501006126403809
1712834634374714600,23.798714599609376,-3.6742963790893555,3.2616071701049805,10.503986358642578
1712834634394714600,23.818714599609375,-3.5387749671936035,3.203122138977051,10.352865219116211
1712834634414714600,23.838714599609375,-4.632434844970703,3.885251045227051,14.224854469299316
1712834634434714600,23.858714599609375,5.692470073699951,2.3338851928710938,6.6658759117126465
1712834634454714600,23.878714599609374,5.898000717163086,1.4886341094970703,3.9963302612304688
1712834634474714600,23.898714599609374,4.237029075622559,2.1885690689086914,2.09883975982666
1712834634494714600,23.918714599609373,1.395567536354065,1.9818382263183594,-0.5102529525756836
1712834634514714600,23.938714599609376,-0.6181662082672119,0.785679817199707,-2.9943580627441406
1712834634534714600,23.958714599609376,-1.284038782119751,0.1906290054321289,-3.9477245807647705
1712834634554714600,23.978714599609376,-0.8009016513824463,-0.2860126495361328,-3.236382007598877
1712834634574714600,23.998714599609375,0.14036428928375244,-0.43726634979248047,-1.5090713500976562
1712834634594714600,24.018714599609375,0.8072657585144043,-0.7986326217651367,0.1314105987548828
1712834634614714600,24.038714599609374,1.163164496421814,-0.8389654159545898,1.5750706195831299
1712834634634714600,24.058714599609374,0.9776943922042847,-0.6620426177978516,2.3695807456970215
1712834634654714600,24.078714599609373,0.4349327087402344,-0.5590457916259766,2.254434823989868
1712834634674714600,24.098714599609377,-0.07013130187988281,-0.3350238800048828,1.4247069358825684
1712834634694714600,24.118714599609376,-0.2809183597564697,-0.10164546966552734,0.7022800445556641
1712834634714714600,24.138714599609376,-0.13251733779907227,0.14786911010742188,0.545535147190094
1712834634734714600,24.158714599609375,-0.22025442123413086,0.17061614990234375,0.5497376322746277
1712834634754714600,24.178714599609375,0.005648136138916016,0.12868118286132812,0.22267448902130127
1712834634774715100,24.198715087890626,-0.05093550682067871,0.04947948455810547,-0.3355386257171631
1712834634794715100,24.218715087890626,-0.28441500663757324,-0.14397716522216797,-0.5842553377151489
1712834634814715100,24.238715087890625,-0.27053356170654297,-0.69561767578125,-0.3619198799133301
1712834634834715100,24.258715087890625,-0.054793357849121094,-1.1160964965820312,0.11627662181854248
1712834634854715100,24.278715087890625,-0.11630845069885254,-1.1522912979125977,0.5228931903839111
1712834634874714600,24.298714599609376,-0.1901109218597412,-0.9961347579956055,0.8239455223083496
1712834634894714600,24.318714599609375,-0.08865189552307129,-0.977086067199707,0.8415557742118835
1712834634914714600,24.338714599609375,-0.05468297004699707,-1.1439733505249023,0.4971737265586853
1712834634934714600,24.358714599609375,-0.0735940933227539,-1.2049455642700195,0.15506982803344727
1712834634954714600,24.378714599609374,-0.055574655532836914,-1.3002233505249023,-0.20462071895599365
1712834634974714600,24.398714599609374,-0.08945274353027344,-1.1387557983398438,-0.6765708923339844
1712834634994714600,24.418714599609373,0.016133546829223633,-1.1473379135131836,-0.5661050081253052
1712834635014714600,24.438714599609376,-0.36160552501678467,-0.116729736328125,-1.07688307762146
1712834635034714600,24.458714599609376,-0.6068861484527588,0.9884672164916992,-0.8865312337875366
1712834635054714600,24.478714599609376,-0.48386645317077637,0.9795417785644531,-0.7973140478134155
1712834635074714600,24.498714599609375,-0.10779881477355957,1.4527435302734375,-0.6128114461898804
1712834635094714600,24.518714599609375,0.5215550661087036,1.0526504516601562,1.0597848892211914
1712834635114714600,24.538714599609374,1.0441433191299438,1.0146989822387695,2.4890317916870117
1712834635134714600,24.558714599609374,1.8710944652557373,0.8231115341186523,3.2912769317626953
1712834635154714600,24.578714599609373,1.920053482055664,1.2285528182983398,3.1496148109436035
1712834635174714600,24.598714599609377,1.9613494873046875,1.0183076858520508,2.680161952972412
1712834635194714600,24.618714599609376,1.697355031967163,0.7845382690429688,2.2604551315307617
1712834635214714600,24.638714599609376,1.687544822692871,0.7832756042480469,2.2485969066619873
1712834635234714600,24.658714599609375,-1.4815311431884766,2.0935163497924805,1.0620522499084473
1712834635254714600,24.678714599609375,-1.5405489206314087,2.080900192260742,0.9653081893920898
1712834635274715100,24.698715087890626,0.9135714769363403,2.1227540969848633,3.725949287414551
1712834635294715100,24.718715087890626,0.045447468757629395,1.5338478088378906,4.349454879760742
1712834635314715100,24.738715087890625,-0.02014756202697754,1.5293006896972656,4.259214401245117
1712834635334715100,24.758715087890625,0.016730546951293945,1.019822120666504,3.975377321243286
1712834635354715100,24.778715087890625,-0.017390012741088867,1.4535188674926758,1.012026309967041
1712834635374714600,24.798714599609376,-2.615224838256836,2.459705352783203,-0.7007620334625244
1712834635394714600,24.818714599609375,-1.2232178449630737,0.4796485900878906,1.8983705043792725
1712834635414714600,24.838714599609375,-1.4486550092697144,0.5548982620239258,1.9589006900787354
1712834635434714600,24.858714599609375,-2.0659937858581543,0.11574745178222656,-8.478397369384766
1712834635454714600,24.878714599609374,-2.2432146072387695,0.28957176208496094,-8.033806800842285
1712834635474714600,24.898714599609374,-6.487274169921875,-2.802673816680908,-3.4719693660736084
1712834635494714600,24.918714599609373,-6.59487247467041,-2.7215371131896973,-3.3480565547943115
1712834635514714600,24.938714599609376,-5.304691314697266,-2.256424903869629,-2.4210205078125
1712834635534714600,24.958714599609376,-4.429520606994629,-3.0582079887390137,-0.9850177764892578
1712834635554714600,24.978714599609376,-3.879897356033325,-2.7296905517578125,0.10328245162963867
1712834635574714600,24.998714599609375,-3.6806960105895996,-2.758443832397461,0.23036837577819824
1712834635594714600,25.018714599609375,-4.040923118591309,-1.6307415962219238,-1.1279270648956299
1712834635614714600,25.038714599609374,-3.8132479190826416,-1.7259411811828613,-1.1742000579833984
1712834635634714600,25.058714599609374,-4.465533256530762,-2.4939417839050293,-1.280886173248291
1712834635654714600,25.078714599609373,-5.076152801513672,-0.9653921127319336,-1.197361707687378
1712834635674714600,25.098714599609377,-4.6646199226379395,0.8338556289672852,-2.0582115650177
1712834635694714600,25.118714599609376,-4.449965000152588,0.6811666488647461,-2.4517223834991455
1712834635714714600,25.138714599609376,-3.849818468093872,-0.37061405181884766,-3.7363882064819336
