time,seconds_elapsed,z,y,x
1712834610634016800,0.058016845703125,-0.04108068719506264,-0.051999904215335846,0.04115704447031021
1712834610656017000,0.080016845703125,-0.036193765699863434,-0.07704538106918335,0.02710714563727379
1712834610676017000,0.100016845703125,-0.038637228310108185,-0.0214566420763731,0.048487428575754166
1712834610696017000,0.120016845703125,-0.04230241850018501,-0.010461067780852318,0.04909829422831535
1712834610716017000,0.140016845703125,-0.02886338345706463,0.008475755341351032,0.0014508049935102463
1712834610736017000,0.160016845703125,-0.010537425056099892,-0.051999904215335846,0.054596081376075745
1712834610756017000,0.180016845703125,-0.055741455405950546,-0.019624045118689537,0.057039543986320496
1712834610776017000,0.200016845703125,-0.030695978552103043,-0.061162881553173065,0.05032002553343773
1712834610796017000,0.220016845703125,-0.016035212203860283,-0.08681922405958176,0.04787656292319298
1712834610816017000,0.240016845703125,-0.027030786499381065,-0.04833471402525902,0.05887213721871376
1712834610836017000,0.260016845703125,-0.04046982154250145,0.032910365611314774,0.060704734176397324
1712834610856017000,0.280016845703125,-0.02519819140434265,0.14042264223098755,0.07841982692480087
1712834610876017000,0.300016845703125,-0.033139441162347794,0.2436588704586029,0.11385001242160797
1712834610896017000,0.320016845703125,-0.01664607785642147,0.4305836260318756,0.15966489911079407
1712834610916017700,0.340017578125,0.17638733983039856,0.7818311452865601,0.2494620978832245
1712834610936017700,0.360017578125,0.4378376603126526,1.2528082132339478,0.3148246705532074
1712834610956017700,0.380017578125,0.6846272349357605,1.8135825395584106,0.4211152195930481
1712834610976017700,0.400017578125,0.8972083330154419,2.402456760406494,0.32826370000839233
1712834610996017700,0.420017578125,1.906357765197754,3.8025598526000977,0.08758280426263809
1712834611016017700,0.440017578125,2.738966941833496,4.2491021156311035,-0.21479548513889313
1712834611036017700,0.460017578125,2.0865628719329834,4.75795316696167,0.022831087931990623
1712834611056018000,0.480017822265625,1.399950385093689,4.398764133453369,0.06864598393440247
1712834611076018000,0.500017822265625,1.7719674110412598,2.9894981384277344,-0.2508365511894226
1712834611096018000,0.520017822265625,2.330909013748169,2.0542633533477783,-0.4078288972377777
1712834611116018000,0.540017822265625,2.4378104209899902,1.8655060529708862,-0.39622247219085693
1712834611136018000,0.560017822265625,2.401158571243286,2.117182493209839,-0.3418554663658142
1712834611156018000,0.580017822265625,2.492788314819336,2.3450353145599365,-0.29970577359199524
1712834611176018000,0.600017822265625,2.694373846054077,2.636418104171753,-0.31925344467163086
1712834611196018000,0.620017822265625,2.8324294090270996,2.866103410720825,-0.3174208402633667
1712834611216018000,0.640017822265625,2.82265567779541,2.6400833129882812,-0.26855164766311646
1712834611236018000,0.660017822265625,2.7377452850341797,2.3248767852783203,-0.263053834438324
1712834611256018000,0.680017822265625,2.8574748039245605,1.6907986402511597,-0.32047519087791443
1712834611276018000,0.700017822265625,2.8715248107910156,1.2118803262710571,-0.33024901151657104
1712834611296018000,0.720017822265625,2.6510024070739746,0.9870818853378296,-0.21357376873493195
1712834611316018000,0.740017822265625,2.4298691749572754,0.8734609484672546,-0.12072224169969559
1712834611336018000,0.760017822265625,2.353511095046997,0.8264243006706238,-0.07185302674770355
1712834611356018000,0.780017822265625,2.330909013748169,0.9125562906265259,-0.021151209250092506
1712834611376018000,0.800017822265625,2.239279270172119,0.9834166765213013,0.10407616943120956
1712834611396018000,0.820017822265625,2.0725131034851074,1.0390053987503052,0.24090997874736786
1712834611416018200,0.84001806640625,1.906357765197754,1.1678979396820068,0.2702315151691437
1712834611436018200,0.86001806640625,1.836719036102295,1.1996629238128662,0.18715384602546692
1712834611456018200,0.88001806640625,1.6369661092758179,1.1520154476165771,0.15416711568832397
1712834611476018200,0.90001806640625,1.2906055450439453,1.1269700527191162,0.08025242388248444
1712834611496018200,0.92001806640625,1.1452195644378662,1.0255663394927979,-0.027259862050414085
1712834611516018000,0.940017822265625,0.9790642857551575,0.9559277296066284,-0.17631098628044128
1712834611536018000,0.960017822265625,0.7646505832672119,1.112309217453003,-0.38522690534591675
1712834611556018200,0.98001806640625,0.6864598393440247,1.4226287603378296,-0.576427698135376
1712834611576018200,1.00001806640625,0.6363688707351685,1.8471801280975342,-0.8354345560073853
1712834611596018200,1.02001806640625,0.5203045010566711,2.1110739707946777,-1.1549171209335327
1712834611616018200,1.04001806640625,0.4262312352657318,2.217975378036499,-1.3882676362991333
1712834611636018200,1.06001806640625,0.2893974184989929,2.250962018966675,-1.5208253860473633
1712834611656018000,1.080017822265625,0.028557950630784035,2.0713677406311035,-1.6002378463745117
1712834611676018000,1.100017822265625,-0.22617286443710327,1.8685604333877563,-1.545259952545166
1712834611696018000,1.120017822265625,-0.5926920175552368,1.863673448562622,-1.3729959726333618
1712834611716018000,1.140017822265625,-1.2218831777572632,1.9198731184005737,-1.147586703300476
1712834611736018000,1.160017822265625,-1.4857770204544067,1.846569299697876,-1.013196349143982
1712834611756018000,1.180017822265625,-1.4515684843063354,1.516091227531433,-0.7657959461212158
1712834611776018000,1.200017822265625,-1.4424055814743042,1.029842495918274,-0.40966150164604187
1712834611796018000,1.220017822265625,-1.6427693367004395,0.6089562773704529,-0.0694095641374588
1712834611816018000,1.240017822265625,-1.9194912910461426,0.4550182521343231,0.2751184403896332
1712834611836018000,1.260017822265625,-2.0251710414886475,0.16913332045078278,0.6953937411308289
1712834611856018000,1.280017822265625,-1.8345810174942017,-0.33544138073921204,1.1584296226501465
1712834611876018000,1.300017822265625,-1.6427693367004395,-1.1045206785202026,1.6935474872589111
1712834611896018000,1.320017822265625,-1.4381295442581177,-1.9536234140396118,2.1578052043914795
1712834611916018200,1.34001806640625,-0.793666660785675,-2.3305273056030273,2.4876723289489746
1712834611936018200,1.36001806640625,0.30711251497268677,-2.2193498611450195,2.7747790813446045
1712834611956018200,1.38001806640625,0.8923214077949524,-1.8137352466583252,2.8199830055236816
1712834611976018200,1.40001806640625,1.1275044679641724,-2.0177643299102783,3.0460031032562256
1712834611996018200,1.42001806640625,1.0865765810012817,-2.9682705402374268,3.7265071868896484
1712834612016018000,1.440017822265625,0.7707592248916626,-4.076991081237793,3.8853321075439453
1712834612036018000,1.460017822265625,-0.18096883594989777,-4.82285737991333,3.4925456047058105
1712834612056018200,1.48001806640625,-1.3293955326080322,-6.053750991821289,3.153515577316284
1712834612076018200,1.50001806640625,-2.269517183303833,-7.404984951019287,2.1468095779418945
1712834612096018200,1.52001806640625,-1.7105754613876343,-7.977365493774414,1.485242486000061
1712834612116018200,1.54001806640625,-0.697149932384491,-7.349396228790283,1.542052984237671
1712834612136018200,1.56001806640625,-0.2347249686717987,-6.014655590057373,1.903685212135315
1712834612156018000,1.580017822265625,1.1439979076385498,-4.152127265930176,2.4455225467681885
1712834612176018000,1.600017822265625,1.4329371452331543,-3.1661908626556396,1.543885588645935
1712834612196018000,1.620017822265625,0.670577347278595,-0.28901562094688416,0.3197115957736969
1712834612216018000,1.640017822265625,0.11530081182718277,2.818455934524536,-0.048029281198978424
1712834612236018000,1.660017822265625,0.5746715068817139,4.55636739730835,-0.14882203936576843
1712834612256018000,1.680017822265625,1.260062336921692,5.478774070739746,-0.43165266513824463
1712834612276018000,1.700017822265625,1.2441798448562622,5.077435493469238,-0.5550474524497986
1712834612296018000,1.720017822265625,0.8538368940353394,3.8098902702331543,-0.566653847694397
1712834612315715000,1.739715087890625,0.6143777370452881,1.979127049446106,-0.7236462235450745
1712834612335715000,1.759715087890625,0.44089198112487793,0.020693060010671616,-0.9838748574256897
1712834612355715000,1.779715087890625,0.24236078560352325,-1.221195936203003,-1.0657308101654053
1712834612375715000,1.799715087890625,0.244804248213768,-1.6060410737991333,-1.0205267667770386
1712834612395715000,1.819715087890625,0.39996400475502014,-1.3140474557876587,-0.9563859105110168
1712834612415715300,1.83971533203125,0.5612324476242065,-0.5413029789924622,-0.8494845032691956
1712834612435715300,1.85971533203125,0.5997169613838196,0.11110111325979233,-0.796339213848114
1712834612455715300,1.87971533203125,0.6137668490409851,0.5802456140518188,-0.7749589085578918
1712834612475715300,1.89971533203125,0.611934244632721,0.7989353537559509,-0.738917887210846
1712834612495715300,1.91971533203125,0.5673410892486572,0.7977136373519897,-0.6601162552833557
1712834612515715000,1.939715087890625,0.48976120352745056,0.5796347856521606,-0.557490885257721
1712834612535715000,1.959715087890625,0.4121813178062439,0.1727984994649887,-0.47258061170578003
1712834612555715300,1.97971533203125,0.29856038093566895,-0.23281601071357727,-0.3992767930030823
1712834612575715300,1.99971533203125,0.194713294506073,-0.38553231954574585,-0.3229186534881592
1712834612595715300,2.01971533203125,0.20082195103168488,-0.2914590835571289,-0.27832546830177307
1712834612615715300,2.03971533203125,0.2588541507720947,-0.00985020212829113,-0.21235203742980957
1712834612635715300,2.05971533203125,0.2509129047393799,0.38843393325805664,-0.12622003257274628
1712834612655715000,2.079715087890625,0.21181751787662506,0.7476227283477783,-0.04558581858873367
1712834612675715000,2.099715087890625,0.11652254313230515,0.8917868733406067,0.01488984003663063
1712834612695715000,2.119715087890625,-0.013591751456260681,0.7415140271186829,0.039935316890478134
1712834612715715000,2.139715087890625,-0.14737124741077423,0.45257478952407837,0.05276348441839218
1712834612735715000,2.159715087890625,-0.2945897579193115,0.17829629778862,0.04909829422831535
1712834612755715000,2.179715087890625,-0.3764457106590271,-0.07093672454357147,0.048487428575754166
1712834612775715000,2.199715087890625,-0.39843684434890747,-0.21449005603790283,0.08025242388248444
1712834612795715000,2.219715087890625,-0.36483925580978394,-0.23709207773208618,0.09857837855815887
1712834612815715000,2.239715087890625,-0.30802878737449646,-0.13935363292694092,0.09552405029535294
1712834612835715000,2.259715087890625,-0.2652682363986969,-0.01412625890225172,0.08880453556776047
1712834612855715000,2.279715087890625,-0.2848159074783325,0.09582948684692383,0.09369145333766937
1712834612875715000,2.299715087890625,-0.33735033869743347,0.10804679244756699,0.11629346758127213
1712834612895715000,2.319715087890625,-0.3874412775039673,0.03718642145395279,0.14561499655246735
1712834612915715300,2.33971533203125,-0.4271475374698639,-0.00862847175449133,0.18593211472034454
1712834612935715300,2.35971533203125,-0.46563202142715454,-0.010461067780852318,0.2280818074941635
1712834612955715300,2.37971533203125,-0.5707008838653564,0.020082194358110428,0.2683989107608795
1712834612975715300,2.39971533203125,-0.7179193496704102,0.04329507425427437,0.31726813316345215
1712834612995715300,2.41971533203125,-0.8724682927131653,-0.017180584371089935,0.3795763850212097
1712834613015715000,2.439715087890625,-1.0044151544570923,-0.11125383526086807,0.396680623292923
1712834613035715000,2.459715087890625,-0.9976956844329834,-0.2315942794084549,0.35819610953330994
1712834613055715300,2.47971533203125,-0.8724682927131653,-0.3623194396495819,0.3148246705532074
1712834613075715300,2.49971533203125,-0.7588473558425903,-0.3329979181289673,0.29161179065704346
1712834613095715300,2.51971533203125,-0.6892086863517761,-0.004963280167430639,0.27572929859161377
1712834613115715300,2.53971533203125,-0.5988006591796875,0.481896311044693,0.24152085185050964
1712834613135715300,2.55971533203125,-0.5560401082038879,0.7738898992538452,0.09430231899023056
1712834613155715000,2.579715087890625,-0.5065600275993347,0.7494552731513977,-0.09812022745609283
1712834613175715000,2.599715087890625,-0.3923282027244568,0.6749297380447388,-0.32902729511260986
1712834613195715000,2.619715087890625,-0.18707747757434845,0.6529386043548584,-0.5385540723800659
1712834613215715000,2.639715087890625,0.10002918541431427,0.9162214994430542,-0.6521750092506409
1712834613235715000,2.659715087890625,0.40851613879203796,1.448896050453186,-0.7364743947982788
1712834613255715000,2.679715087890625,0.803135097026825,2.064037322998047,-0.9032406210899353
1712834613275715000,2.699715087890625,1.1580477952957153,2.3865742683410645,-1.0125855207443237
1712834613295715000,2.719715087890625,1.461647868156433,2.6205356121063232,-1.024802803993225
1712834613315715000,2.739715087890625,1.6320792436599731,2.7854690551757812,-0.9472229480743408
1712834613335715000,2.759715087890625,1.6901113986968994,2.864881753921509,-0.8635343909263611
1712834613355715000,2.779715087890625,1.6925548315048218,2.740265130996704,-1.0736720561981201
1712834613375715000,2.799715087890625,1.7212655544281006,3.2246813774108887,-1.3418418169021606
1712834613395715000,2.819715087890625,1.7298176288604736,4.528878688812256,-1.7584519386291504
1712834613415715300,2.83971533203125,0.6882924437522888,6.602766036987305,-2.7914249897003174
1712834613435715300,2.85971533203125,-0.6458373069763184,7.426212310791016,-2.6942975521087646
1712834613455715300,2.87971533203125,-0.6018549799919128,6.591770648956299,-2.4310145378112793
1712834613475715300,2.89971533203125,-0.289702832698822,4.60645866394043,-2.1219167709350586
1712834613495715300,2.91971533203125,-0.11071932315826416,2.0035617351531982,-2.259361505508423
1712834613515715000,2.939715087890625,-0.07101308554410934,0.5405393838882446,-2.2025508880615234
1712834613535715000,2.959715087890625,0.3975205719470978,-0.08926268666982651,-1.9985220432281494
1712834613555715300,2.97971533203125,0.8758280277252197,-0.5351943373680115,-1.895285725593567
1712834613575715300,2.99971533203125,1.1843149662017822,-0.3079524338245392,-1.8079320192337036
1712834613595715300,3.01971533203125,1.3865114450454712,-0.12896892428398132,-1.432249903678894
1712834613615715300,3.03971533203125,1.6809484958648682,-0.4887685477733612,-1.1732430458068848
1712834613635715300,3.05971533203125,1.96133553981781,-1.1643855571746826,-0.7902305722236633
1712834613655715000,3.079715087890625,2.1818578243255615,-1.8296177387237549,-0.5202280879020691
1712834613675715000,3.099715087890625,2.200183868408203,-2.4710261821746826,-0.3888920843601227
1712834613695715000,3.119715087890625,1.9576704502105713,-2.728811502456665,-0.14393512904644012
1712834613715715000,3.139715087890625,1.6785049438476562,-2.695213794708252,0.38201984763145447
1712834613735715000,3.159715087890625,1.594205617904663,-2.516230344772339,0.5469534397125244
1712834613755715000,3.179715087890625,1.4604260921478271,-2.310368776321411,0.6508005857467651
1712834613775715000,3.199715087890625,1.2472341060638428,-1.6836209297180176,0.6636287569999695
1712834613795715000,3.219715087890625,0.6913467645645142,-0.9151524901390076,0.7149413824081421
1712834613815715000,3.239715087890625,-0.08750644326210022,-0.20715968310832977,0.6104834675788879
1712834613835715000,3.259715087890625,-0.5163338780403137,0.1324813961982727,0.21525363624095917
1712834613855715000,3.279715087890625,-1.098488450050354,0.2735912799835205,0.005726861767470837
1712834613875715000,3.299715087890625,-1.7111862897872925,0.2906954884529114,0.072311170399189
1712834613895715000,3.319715087890625,-2.249969482421875,0.40737074613571167,0.36247217655181885
1712834613915715300,3.33971533203125,-2.587777853012085,0.16546812653541565,0.5188536643981934
1712834613935715300,3.35971533203125,-2.685516357421875,-0.07887797802686691,0.7076110243797302
1712834613955715300,3.37971533203125,-2.752711534500122,-0.18944458663463593,1.0790170431137085
1712834613975715300,3.39971533203125,-2.710561752319336,-0.46677741408348083,1.523116111755371
1712834613995715300,3.41971533203125,-2.3721425533294678,-0.995175838470459,1.8780288696289062
1712834614015715000,3.439715087890625,-1.829694151878357,-1.4887549877166748,2.050903797149658
1712834614035715000,3.459715087890625,-1.2347114086151123,-2.3757312297821045,2.323960542678833
1712834614055715300,3.47971533203125,-0.5780312418937683,-3.4697909355163574,2.511496067047119
1712834614075715300,3.49971533203125,-0.020311269909143448,-4.938921928405762,2.9140563011169434
1712834614095715300,3.51971533203125,-0.07223481684923172,-6.210132598876953,3.211547613143921
1712834614115715300,3.53971533203125,-1.0392345190048218,-7.053126335144043,2.7576746940612793
1712834614135715300,3.55971533203125,-2.3861923217773438,-7.607181072235107,2.170022487640381
1712834614155715000,3.579715087890625,-2.9805643558502197,-7.645665645599365,1.3991104364395142
1712834614175715000,3.599715087890625,-2.5529584884643555,-7.047628879547119,0.3795763850212097
1712834614195715000,3.619715087890625,-1.8486309051513672,-5.890038967132568,0.2433534413576126
1712834614215715000,3.639715087890625,-1.3972015380859375,-4.208326816558838,0.6630178689956665
1712834614235715000,3.659715087890625,-0.03497203439474106,-3.1576387882232666,0.8181776404380798
1712834614255715000,3.679715087890625,1.3083206415176392,-2.9169578552246094,1.7173712253570557
1712834614275715000,3.699715087890625,0.9595165848731995,-2.4154374599456787,1.1205558776855469
1712834614295715000,3.719715087890625,0.546571671962738,0.11049024760723114,-0.13355042040348053
1712834614315715000,3.739715087890625,0.29367345571517944,2.1348977088928223,-0.3815616965293884
1712834614335715000,3.759715087890625,0.39385536313056946,3.848374605178833,-0.6143013834953308
1712834614355715000,3.779715087890625,0.41462478041648865,4.54659366607666,-0.6882160305976868
1712834614375715000,3.799715087890625,0.27290403842926025,4.099440097808838,-0.5819255113601685
1712834614395715000,3.819715087890625,0.26251932978630066,2.7494280338287354,-0.6466771960258484
1712834614415715300,3.83971533203125,0.31261029839515686,1.0267881155014038,-0.8562039732933044
1712834614435715300,3.85971533203125,0.25274550914764404,-0.40141481161117554,-0.889801561832428
1712834614455715300,3.87971533203125,0.22098049521446228,-0.9499717950820923,-0.8500953316688538
1712834614475715300,3.89971533203125,0.35414913296699524,-0.709901750087738,-0.825049877166748
1712834614495715300,3.91971533203125,0.4573853611946106,-0.0006872233934700489,-0.7896196842193604
1712834614515715000,3.939715087890625,0.4769330322742462,0.8404742479324341,-0.757243812084198
1712834614535715000,3.959715087890625,0.5288565754890442,1.6113861799240112,-0.7657959461212158
1712834614555715300,3.97971533203125,0.6235406994819641,2.1251237392425537,-0.8000044226646423
1712834614575715300,3.99971533203125,0.7316638231277466,2.3358724117279053,-0.7920631766319275
1712834614595715300,4.01971533203125,0.7841982841491699,2.3285419940948486,-0.7077637314796448
1712834614615715300,4.03971533203125,0.8190175890922546,2.1697170734405518,-0.6295729875564575
1712834614635715300,4.05971533203125,0.8758280277252197,1.9021580219268799,-0.5556582808494568
1712834614655715000,4.079715087890625,0.935081958770752,1.6089427471160889,-0.48174360394477844
1712834614675715000,4.099715087890625,0.9491318464279175,1.4006376266479492,-0.4078288972377777
1712834614695715000,4.119715087890625,0.9057604670524597,1.2570843696594238,-0.3412446081638336
1712834614715715000,4.139715087890625,0.7817547917366028,1.174006700515747,-0.25938865542411804
1712834614735715000,4.159715087890625,0.6168211698532104,1.0414488315582275,-0.18241962790489197
1712834614755715000,4.179715087890625,0.4812090992927551,0.7231881022453308,-0.10361801832914352
1712834614775715000,4.199715087890625,0.3761402666568756,0.3994295001029968,-0.041920628398656845
1712834614795715000,4.219715087890625,0.24908030033111572,0.050014592707157135,0.008170322515070438
1712834614815715000,4.239715087890625,0.08109235763549805,-0.2053270787000656,0.11812606453895569
1712834614835715000,4.259715087890625,-0.09300423413515091,-0.3818671405315399,0.21525363624095917
1712834614855715000,4.279715087890625,-0.22617286443710327,-0.5370268821716309,0.27145323157310486
1712834614875715000,4.299715087890625,-0.342237263917923,-0.6414848566055298,0.31238120794296265
1712834614895715000,4.319715087890625,-0.432034432888031,-0.6842454075813293,0.3643047511577606
1712834614915715300,4.33971533203125,-0.4772384762763977,-0.6598108410835266,0.42905646562576294
1712834614935715300,4.35971533203125,-0.5291619896888733,-0.5834526419639587,0.4901430010795593
1712834614955715300,4.37971533203125,-0.651945948600769,-0.4887685477733612,0.5561164617538452
1712834614975715300,4.39971533203125,-0.8449793457984924,-0.4325689375400543,0.6404158473014832
1712834614995715300,4.41971533203125,-1.0416779518127441,-0.49609893560409546,0.7131088376045227
1712834615015715000,4.439715087890625,-0.9482156038284302,-0.6903541088104248,0.7070001363754272
1712834615035715000,4.459715087890625,-0.8468119502067566,-0.8094727993011475,0.7925212979316711
1712834615055715300,4.47971533203125,-0.9531024694442749,-0.9976193308830261,0.7552585005760193
1712834615075715300,4.49971533203125,-1.0905472040176392,-0.863228976726532,0.7008914947509766
1712834615095715300,4.51971533203125,-1.1742357015609741,-0.5895613431930542,0.6789003610610962
1712834615115715300,4.53971533203125,-1.191950798034668,-0.3830888569355011,0.4699844419956207
1712834615135715300,4.55971533203125,-1.1797335147857666,-0.1851685345172882,0.28672486543655396
1712834615155715000,4.579715087890625,-0.877966046333313,0.13492485880851746,0.08391761034727097
1712834615175715000,4.599715087890625,-0.5279402732849121,0.5771912932395935,-0.08284860104322433
1712834615195715000,4.619715087890625,-0.270766019821167,1.0988701581954956,-0.22029328346252441
1712834615215715000,4.639715087890625,0.02733621932566166,1.4727197885513306,-0.3125339448451996
1712834615235715000,4.659715087890625,0.45433104038238525,1.871614694595337,-0.5012912750244141
1712834615255715000,4.679715087890625,0.8477282524108887,2.2747857570648193,-0.7218136191368103
1712834615275715000,4.699715087890625,1.1336132287979126,2.765310525894165,-1.110934853553772
1712834615295715000,4.719715087890625,1.2050844430923462,3.203300952911377,-1.289918303489685
1712834615315715000,4.739715087890625,1.0352638959884644,3.786677360534668,-1.3827698230743408
1712834615335715000,4.759715087890625,0.6528622508049011,4.040186405181885,-1.605124831199646
1712834615355715000,4.779715087890625,0.2246456891298294,3.853872537612915,-1.8030451536178589
1712834615375715000,4.799715087890625,0.05115996301174164,3.6211328506469727,-1.8103755712509155
1712834615395715000,4.819715087890625,-0.10461067408323288,3.370677947998047,-1.9594266414642334
1712834615415715300,4.83971533203125,-0.37827831506729126,3.159318685531616,-1.9826395511627197
1712834615435715300,4.85971533203125,-0.6079636216163635,3.5374443531036377,-1.811597228050232
1712834615455715300,4.87971533203125,-1.3666582107543945,3.6370153427124023,-1.5110515356063843
1712834615475715300,4.89971533203125,-2.0282254219055176,3.3169219493865967,-1.099939227104187
1712834615495715300,4.91971533203125,-2.268906354904175,2.7610344886779785,-0.7712937593460083
1712834615515715000,4.939715087890625,-2.4191792011260986,2.1544454097747803,-0.5947536826133728
1712834615535715000,4.959715087890625,-2.5700628757476807,1.516091227531433,-0.18852828443050385
1712834615555715300,4.97971533203125,-2.5828909873962402,1.0194576978683472,0.3343723714351654
1712834615575715300,4.99971533203125,-2.42834210395813,0.5863542556762695,0.7662540674209595
1712834615595715300,5.01971533203125,-2.1870503425598145,0.21250474452972412,0.981278657913208
1712834615615715300,5.03971533203125,-1.780824899673462,-0.5040401816368103,1.3068698644638062
1712834615635715300,5.05971533203125,-1.260367751121521,-1.2297481298446655,1.5273921489715576
1712834615655715000,5.079715087890625,-0.7038694620132446,-1.7648659944534302,1.3313044309616089
1712834615675715000,5.099715087890625,-0.23167064785957336,-1.8613827228546143,1.2677744626998901
1712834615695715000,5.119715087890625,0.3150537610054016,-1.6561319828033447,1.5127314329147339
1712834615715715000,5.139715087890625,0.7884743213653564,-1.4576008319854736,1.8328248262405396
1712834615735715000,5.159715087890625,1.296714186668396,-1.4368313550949097,2.246380567550659
1712834615755715000,5.179715087890625,1.9216293096542358,-1.8112918138504028,2.5347089767456055
1712834615775715000,5.199715087890625,2.5453226566314697,-2.5015695095062256,2.3948209285736084
1712834615795715000,5.219715087890625,2.7206411361694336,-3.359224319458008,2.2860867977142334
1712834615815715000,5.239715087890625,2.1989622116088867,-4.223598480224609,2.5646414756774902
1712834615835715000,5.259715087890625,1.2466232776641846,-4.800255298614502,2.890843391418457
1712834615855715000,5.279715087890625,0.24846944212913513,-5.317047595977783,2.721022844314575
1712834615875715000,5.299715087890625,-0.5016731023788452,-5.647525787353516,2.2359957695007324
1712834615895715000,5.319715087890625,-0.651945948600769,-6.037868499755859,1.5646549463272095
1712834615915715300,5.33971533203125,-0.4314235746860504,-5.8094048500061035,1.1938598155975342
1712834615935715300,5.35971533203125,-0.34345898032188416,-5.2345805168151855,1.6788867712020874
1712834615955715300,5.37971533203125,0.12446379661560059,-4.878446102142334,2.5817456245422363
1712834615975715300,5.39971533203125,1.0749701261520386,-4.654869556427002,2.5347089767456055
1712834615995715300,5.41971533203125,1.7090482711791992,-4.1313581466674805,1.581148386001587
1712834616015715000,5.439715087890625,1.1995866298675537,-1.754481315612793,0.9366855025291443
1712834616035715000,5.459715087890625,0.5001459121704102,1.0701595544815063,0.42844560742378235
1712834616055715300,5.47971533203125,0.7255551815032959,2.8636598587036133,-0.0016035212902352214
1712834616075715300,5.49971533203125,1.0462594032287598,3.674888849258423,-0.4121049642562866
1712834616095715300,5.51971533203125,1.0254900455474854,3.9974257946014404,-0.6491206884384155
1712834616115715300,5.53971533203125,0.8483390808105469,3.8392117023468018,-0.6497315168380737
1712834616135715300,5.55971533203125,0.6265950202941895,3.14221453666687,-0.6277403831481934
1712834616155715000,5.579715087890625,0.4225660264492035,1.9357556104660034,-0.7529677748680115
1712834616175715000,5.599715087890625,0.27290403842926025,0.43363797664642334,-0.8537605404853821
1712834616195715000,5.619715087890625,0.24174992740154266,-0.18272507190704346,-0.8830820918083191
1712834616215715000,5.639715087890625,0.2545780837535858,-0.18150334060192108,-0.8763625621795654
1712834616235715000,5.659715087890625,0.3016147017478943,0.2387719452381134,-0.8641452193260193
1712834616255715000,5.679715087890625,0.36942076683044434,0.7708355784416199,-0.8836929202079773
1712834616275715000,5.699715087890625,0.3908010423183441,1.1770609617233276,-0.9343947768211365
1712834616295715000,5.719715087890625,0.42012256383895874,1.4629459381103516,-0.9759336113929749
1712834616315715000,5.739715087890625,0.47510045766830444,1.693242073059082,-0.9802096486091614
1712834616335715000,5.759715087890625,0.5508477091789246,1.7940348386764526,-0.9276752471923828
1712834616355715000,5.779715087890625,0.6253733038902283,1.7085137367248535,-0.8195520639419556
1712834616375715000,5.799715087890625,0.6583600044250488,1.4757740497589111,-0.6912704110145569
1712834616395715000,5.819715087890625,0.641255795955658,1.1672871112823486,-0.5507713556289673
1712834616415715300,5.83971533203125,0.566730260848999,0.8313112258911133,-0.44997861981391907
1712834616435715300,5.85971533203125,0.4671591818332672,0.5124396085739136,-0.3681226670742035
1712834616455715300,5.87971533203125,0.31749722361564636,0.2858085632324219,-0.25999951362609863
1712834616475715300,5.89971533203125,0.1739438772201538,0.1630246639251709,-0.12622003257274628
1712834616495715300,5.91971533203125,0.12263119965791702,0.12942707538604736,-0.012599095702171326
1712834616515715000,5.939715087890625,0.1287398487329483,0.16668985784053802,0.08391761034727097
1712834616535715000,5.959715087890625,0.0981965884566307,0.2442697435617447,0.19570595026016235
1712834616555715300,5.97971533203125,0.007788531947880983,0.2680934965610504,0.28244882822036743
1712834616575715300,5.99971533203125,-0.13209961354732513,0.1422552466392517,0.32826370000839233
1712834616595715300,6.01971533203125,-0.2909245789051056,-0.09231700748205185,0.37346774339675903
1712834616615715300,6.03971533203125,-0.43020185828208923,-0.30001118779182434,0.4357759952545166
1712834616635715300,6.05971533203125,-0.5022839307785034,-0.32994359731674194,0.5310709476470947
1712834616655715000,6.079715087890625,-0.6165157556533813,-0.16317738592624664,0.5848271250724792
1712834616675715000,6.099715087890625,-0.6531676650047302,-0.03061962127685547,0.5689446330070496
1712834616695715000,6.119715087890625,-0.6262896060943604,-0.10209085047245026,0.5658903121948242
1712834616715715000,6.139715087890625,-0.47968193888664246,-0.11858421564102173,0.5683337450027466
1712834616735715000,6.159715087890625,-0.43386703729629517,-0.11614075303077698,0.5231297016143799
1712834616755715000,6.179715087890625,-0.5981897711753845,-0.17417295277118683,0.49869510531425476
1712834616775715000,6.199715087890625,-0.765566885471344,-0.12652546167373657,0.4406629204750061
1712834616795715000,6.219715087890625,-0.7930558323860168,-0.13324497640132904,0.283059686422348
1712834616815715000,6.239715087890625,-0.6983717083930969,-0.08926268666982651,0.09491318464279175
1712834616835715000,6.259715087890625,-0.5254968404769897,0.2137264758348465,-0.07612907886505127
1712834616855715000,6.279715087890625,-0.25793784856796265,0.8166504502296448,-0.20868684351444244
1712834616875715000,6.299715087890625,0.04077525436878204,1.398805022239685,-0.29359710216522217
1712834616895715000,6.319715087890625,0.2942843437194824,1.6840791702270508,-0.41515928506851196
1712834616915715300,6.33971533203125,0.45433104038238525,1.8343520164489746,-0.45181119441986084
1712834616935715300,6.35971533203125,0.3413209617137909,1.9070448875427246,-0.6167448163032532
1712834616955715300,6.37971533203125,0.0682641938328743,1.827021598815918,-0.7633524537086487
1712834616975715300,6.39971533203125,-0.021532999351620674,1.7659350633621216,-0.7254788279533386
1712834616995715300,6.41971533203125,-0.10705413669347763,1.9956203699111938,-0.8433758020401001
1712834617015715000,6.439715087890625,-0.36483925580978394,2.357863426208496,-1.1213195323944092
1712834617035715000,6.459715087890625,-0.7728972434997559,2.8972575664520264,-1.3131312131881714
1712834617055715300,6.47971533203125,-1.1412489414215088,3.3193655014038086,-1.3962088823318481
1712834617075715300,6.49971533203125,-1.4760031700134277,3.1800880432128906,-1.345507025718689
1712834617095715300,6.51971533203125,-1.6836973428726196,2.753704071044922,-1.041296124458313
1712834617115715300,6.53971533203125,-1.8419114351272583,2.8172340393066406,-0.9924269318580627
1712834617135715300,6.55971533203125,-2.2401955127716064,2.8337275981903076,-1.071839451789856
1712834617155715000,6.579715087890625,-2.456441879272461,2.4507150650024414,-0.8629235029220581
1712834617175715000,6.599715087890625,-2.4417810440063477,2.0218875408172607,-0.4383721649646759
1712834617195715000,6.619715087890625,-2.389857530593872,1.44767427444458,0.0918588638305664
1712834617215715000,6.639715087890625,-2.292119026184082,0.762283444404602,0.34231361746788025
1712834617235715000,6.659715087890625,-2.2548563480377197,-0.10453431308269501,0.44799330830574036
1712834617255715000,6.679715087890625,-2.1253528594970703,-0.8760571479797363,0.5909357666969299
1712834617275715000,6.699715087890625,-1.9023871421813965,-1.271286964416504,0.8572730422019958
1712834617295715000,6.719715087890625,-1.641547679901123,-1.3280973434448242,1.2054661512374878
1712834617315715000,6.739715087890625,-1.3941471576690674,-1.2346349954605103,1.4638621807098389
1712834617335715000,6.759715087890625,-1.2835805416107178,-1.0177778005599976,1.5842026472091675
1712834617355715000,6.779715087890625,-1.2524265050888062,-0.9682977795600891,1.550605058670044
1712834617375715000,6.799715087890625,-1.200502872467041,-0.9243154525756836,1.5151748657226562
1712834617395715000,6.819715087890625,-0.9744827747344971,-0.6475934982299805,1.8120553493499756
1712834617415715300,6.83971533203125,-0.47968193888664246,-0.6982953548431396,2.3667209148406982
1712834617435715300,6.85971533203125,0.18005253374576569,-1.1100184917449951,2.625117063522339
1712834617455715300,6.87971533203125,0.6785185933113098,-1.8247308731079102,2.2201132774353027
1712834617475715300,6.89971533203125,1.0914634466171265,-2.837545394897461,2.003256320953369
1712834617495715300,6.91971533203125,1.4384349584579468,-3.669543981552124,1.9470566511154175
1712834617515715000,6.939715087890625,1.4005613327026367,-4.524144172668457,2.0490710735321045
1712834617535715000,6.959715087890625,1.1323914527893066,-5.659742832183838,1.9085720777511597
1712834617555715300,6.97971533203125,1.03037691116333,-6.645068645477295,1.4632513523101807
1712834617575715300,6.99971533203125,0.660803496837616,-5.776418209075928,1.733864665031433
1712834617595715300,7.01971533203125,0.7053966522216797,-3.942600727081299,2.415590286254883
1712834617615715300,7.03971533203125,1.6534595489501953,-3.7544541358947754,3.616551399230957
1712834617635715300,7.05971533203125,2.744464874267578,-3.5339317321777344,4.236579418182373
1712834617655715000,7.079715087890625,1.792125940322876,-3.820427656173706,2.991636276245117
1712834617675715000,7.099715087890625,1.202030062675476,-1.9798905849456787,1.7204256057739258
1712834617695715000,7.119715087890625,0.9234755635261536,0.582689106464386,1.4968489408493042
1712834617715715000,7.139715087890625,1.332755208015442,2.70361328125,1.2818243503570557
1712834617735715000,7.159715087890625,1.9478965997695923,4.114711761474609,0.9605092406272888
1712834617755715000,7.179715087890625,2.0315849781036377,4.823315620422363,0.49380818009376526
1712834617775715000,7.199715087890625,1.8330538272857666,4.943655967712402,0.21158844232559204
1712834617795715000,7.219715087890625,1.5502232313156128,4.3938775062561035,0.17615826427936554
1712834617815715000,7.239715087890625,1.45004141330719,2.856940507888794,-0.2960405647754669
1712834617835715000,7.259715087890625,0.9705121517181396,1.0542770624160767,-0.6595053672790527
1712834617855715000,7.279715087890625,0.7206682562828064,0.06528622657060623,-0.7413613200187683
1712834617875715000,7.299715087890625,0.8068002462387085,0.012751812115311623,-0.7554112076759338
1712834617895715000,7.319715087890625,0.773202657699585,0.5759695768356323,-0.8213846683502197
1712834617915715300,7.33971533203125,0.6876815557479858,1.3224469423294067,-0.9466120600700378
1712834617935715300,7.35971533203125,0.7212791442871094,2.0023398399353027,-1.0846675634384155
1712834617955715300,7.37971533203125,0.7402159571647644,2.502027750015259,-1.1414780616760254
1712834617975715300,7.39971533203125,0.7005097270011902,2.712165355682373,-1.1347585916519165
1712834617995715300,7.41971533203125,0.6546948552131653,2.6852872371673584,-1.1433106660842896
1712834618015715000,7.439715087890625,0.6772968173027039,2.491032123565674,-1.1188760995864868
1712834618035715000,7.459715087890625,0.7408268451690674,2.1947624683380127,-1.041296124458313
1712834618055715300,7.47971533203125,0.7903069257736206,1.8050304651260376,-0.9533315896987915
1712834618075715300,7.49971533203125,0.7909177541732788,1.5356388092041016,-0.919123113155365
1712834618095715300,7.51971533203125,0.7689266204833984,1.296790599822998,-0.8891907334327698
1712834618115715300,7.53971533203125,0.7115052938461304,1.0359511375427246,-0.8336020112037659
1712834618135715300,7.55971533203125,0.6516404747962952,0.7518987655639648,-0.7254788279533386
1712834618155715000,7.579715087890625,0.5929974317550659,0.5845217108726501,-0.5892558693885803
1712834618175715000,7.599715087890625,0.5166392922401428,0.4953353703022003,-0.46219590306282043
1712834618195715000,7.619715087890625,0.44394633173942566,0.36644279956817627,-0.3418554663658142
1712834618215715000,7.639715087890625,0.3608686327934265,0.10377073287963867,-0.21235203742980957
1712834618235715000,7.659715087890625,0.24358251690864563,-0.2114357352256775,-0.04375322163105011
1712834618255715000,7.679715087890625,0.07009678333997726,-0.4441753923892975,0.13950635492801666
1712834618275715000,7.699715087890625,-0.10094548016786575,-0.6866888999938965,0.30749428272247314
1712834618295715000,7.719715087890625,-0.2145664244890213,-0.9347001910209656,0.42905646562576294
1712834618315715000,7.739715087890625,-0.37888917326927185,-1.1692724227905273,0.545120894908905
1712834618335715000,7.759715087890625,-0.554818332195282,-1.413618564605713,0.6428593397140503
1712834618355715000,7.779715087890625,-0.6293439269065857,-1.602375864982605,0.7790822386741638
1712834618375715000,7.799715087890625,-0.6446155309677124,-1.5944346189498901,0.8768206834793091
1712834618395715000,7.819715087890625,-0.6922630667686462,-1.4814245700836182,0.9024770259857178
1712834618415715300,7.83971533203125,-0.7600690722465515,-1.415451169013977,0.9079748392105103
1712834618435715300,7.85971533203125,-0.764345109462738,-1.298164963722229,0.943405032157898
1712834618455715300,7.87971533203125,-0.8058840036392212,-1.1747702360153198,0.9751700162887573
1712834618475715300,7.89971533203125,-0.8761335015296936,-0.9493609666824341,1.0044915676116943
1712834618495715300,7.91971533203125,-0.9702067375183105,-0.6573673486709595,0.953178882598877
1712834618515715000,7.939715087890625,-0.9243918061256409,-0.4991532564163208,0.8554404377937317
1712834618535715000,7.959715087890625,-0.8443684577941895,-0.4851033687591553,0.6929502487182617
1712834618555715300,7.97971533203125,-0.888350784778595,-0.38980838656425476,0.535347044467926
1712834618575715300,7.99971533203125,-0.8651378750801086,-0.1607339233160019,0.3753003478050232
1712834618595715300,8.01971533203125,-0.8101600408554077,0.023136520758271217,0.20059287548065186
1712834618615715300,8.03971533203125,-0.7673994898796082,0.1269836127758026,0.03321579843759537
1712834618635715300,8.05971533203125,-0.622624397277832,0.12637275457382202,-0.09262244403362274
1712834618655715000,8.079715087890625,-0.33246341347694397,0.29252809286117554,-0.27404943108558655
1712834618675715000,8.099715087890624,0.003512475173920393,0.6535494327545166,-0.5061782002449036
1712834618695715000,8.119715087890626,0.30833423137664795,1.0328967571258545,-0.5971971154212952
1712834618715715000,8.139715087890625,0.4775438904762268,1.3572661876678467,-0.5703190565109253
1712834618735715000,8.159715087890625,0.6009386777877808,1.7115681171417236,-0.4695262908935547
1712834618755715000,8.179715087890624,0.7060074806213379,2.2228622436523438,-0.5153411626815796
1712834618775715000,8.199715087890626,0.6748533844947815,2.7530932426452637,-0.785954475402832
1712834618795715000,8.219715087890625,0.40912699699401855,3.6211328506469727,-1.021748423576355
1712834618815715000,8.239715087890625,0.1488984078168869,4.394488334655762,-1.1952341794967651
1712834618835715000,8.259715087890624,-0.09605856239795685,5.141576290130615,-1.6155095100402832
1712834618855715000,8.279715087890626,-0.5963571667671204,5.731672286987305,-2.0467803478240967
1712834618875715000,8.299715087890625,-1.7160731554031372,5.941198825836182,-2.343660831451416
1712834618895715000,8.319715087890625,-2.467437505722046,5.271080017089844,-1.916666030883789
1712834618915715300,8.33971533203125,-1.7777706384658813,3.67244553565979,-1.2624293565750122
1712834618935715300,8.35971533203125,-1.1888965368270874,1.3291664123535156,-0.5617669224739075
1712834618955715300,8.37971533203125,-1.2218831777572632,-0.5932264924049377,-0.30886873602867126
1712834618975715300,8.39971533203125,-0.8199338912963867,-1.6830101013183594,-0.19280433654785156
1712834618995715300,8.41971533203125,-0.10522153973579407,-1.9420169591903687,0.2433534413576126
1712834619015715000,8.439715087890624,0.4524984359741211,-1.4093425273895264,0.5304601192474365
1712834619035715000,8.459715087890626,0.8086328506469727,-0.7502188682556152,0.9281333684921265
1712834619055715300,8.47971533203125,1.1036807298660278,-0.4936554729938507,1.353906512260437
1712834619075715300,8.49971533203125,1.5972598791122437,-0.8467355966567993,1.676443338394165
1712834619095715300,8.51971533203125,2.088395595550537,-1.8516088724136353,1.8719202280044556
1712834619115715300,8.53971533203125,2.3156373500823975,-3.1796300411224365,2.2054526805877686
1712834619135715300,8.55971533203125,2.3241894245147705,-4.492990016937256,2.415590286254883
1712834619155715000,8.579715087890625,1.6809484958648682,-5.813681125640869,2.352060317993164
1712834619175715000,8.599715087890624,0.4054618179798126,-5.959066867828369,2.137035608291626
1712834619195715000,8.619715087890626,-0.9622654914855957,-5.841169834136963,1.837100863456726
1712834619215715000,8.639715087890625,-1.7637206315994263,-6.169204235076904,1.5359443426132202
1712834619235715000,8.659715087890625,-1.6519323587417603,-6.328640460968018,0.639194130897522
1712834619255715000,8.679715087890624,-1.2231049537658691,-5.563837051391602,0.4699844419956207
1712834619275715000,8.699715087890626,-0.7869471311569214,-4.784372806549072,1.1602622270584106
1712834619295715000,8.719715087890625,0.3260493278503418,-4.805142402648926,1.8071684837341309
1712834619315715000,8.739715087890625,0.7878634333610535,-5.151503086090088,1.6422348022460938
1712834619335715000,8.759715087890624,0.45005497336387634,-4.028732776641846,0.9702830910682678
1712834619355715000,8.779715087890626,0.4127921760082245,-1.632919192314148,0.28183794021606445
1712834619375715000,8.799715087890625,0.5264131426811218,1.0322859287261963,-0.05535966157913208
1712834619395715000,8.819715087890625,0.651029646396637,3.3975560665130615,-0.3058144152164459
1712834619415715300,8.83971533203125,0.6174320578575134,4.618064880371094,-0.4395939111709595
1712834619435715300,8.85971533203125,0.4378376603126526,4.526434898376465,-0.47685667872428894
1712834619455715300,8.87971533203125,0.22159136831760406,3.370677947998047,-0.5177846550941467
1712834619475715300,8.89971533203125,0.09453139454126358,1.2717450857162476,-0.6369034051895142
1712834619495715300,8.91971533203125,0.16172657907009125,-0.16806429624557495,-0.6613379716873169
1712834619515715000,8.939715087890624,0.17638733983039856,-0.8357400298118591,-0.6588945388793945
1712834619535715000,8.959715087890626,0.23747386038303375,-0.720897376537323,-0.6656140685081482
1712834619555715300,8.97971533203125,0.33887749910354614,-0.15890131890773773,-0.7095963358879089
1712834619575715300,8.99971533203125,0.38408151268959045,0.4599051773548126,-0.7987826466560364
1712834619595715300,9.01971533203125,0.3614795207977295,0.9406561255455017,-0.8635343909263611
1712834619615715300,9.03971533203125,0.31261029839515686,1.238147497177124,-0.8647561073303223
1712834619635715300,9.05971533203125,0.26313021779060364,1.3297772407531738,-0.8103891015052795
1712834619655715000,9.079715087890625,0.26679539680480957,1.2503647804260254,-0.7548003792762756
1712834619675715000,9.099715087890624,0.31932979822158813,1.0634400844573975,-0.6601162552833557
1712834619695715000,9.119715087890626,0.3706424832344055,0.8245916962623596,-0.5684864521026611
1712834619715715000,9.139715087890625,0.37430769205093384,0.5973498225212097,-0.48601967096328735
1712834619735715000,9.159715087890625,0.36331209540367126,0.43791401386260986,-0.4121049642562866
1712834619755715000,9.179715087890624,0.3553708493709564,0.4348596930503845,-0.33024901151657104
1712834619775715000,9.199715087890626,0.3156646192073822,0.5234351754188538,-0.2459496259689331
1712834619795715000,9.219715087890625,0.26190847158432007,0.6553820371627808,-0.1353830099105835
1712834619815715000,9.239715087890625,0.2050980031490326,0.7164685726165771,-0.015042556449770927
1712834619835715000,9.259715087890624,0.1342376321554184,0.6278930902481079,0.10835222154855728
1712834619855715000,9.279715087890626,0.0328340083360672,0.41897720098495483,0.23785565793514252
1712834619875715000,9.299715087890625,-0.09789115190505981,0.1624137908220291,0.3588069677352905
1712834619895715000,9.319715087890625,-0.24388794600963593,-0.13935363292694092,0.46815183758735657
1712834619915715300,9.33971533203125,-0.4118759036064148,-0.4484514594078064,0.5585598945617676
1712834619935715300,9.35971533203125,-0.5664247870445251,-0.7312820553779602,0.6660721898078918
1712834619955715300,9.37971533203125,-0.632398247718811,-0.7703774571418762,0.7320456504821777
1712834619975715300,9.39971533203125,-0.6641632318496704,-0.6323218941688538,0.8090146780014038
1712834619995715300,9.41971533203125,-0.5713117122650146,-0.3061198592185974,0.7986299395561218
1712834620015715000,9.439715087890624,-0.5181664228439331,-0.16378824412822723,0.7546476721763611
1712834620035715000,9.459715087890626,-0.5694791078567505,-0.21204659342765808,0.7192174792289734
1712834620055715300,9.47971533203125,-0.6629415154457092,-0.24381159245967865,0.6746243238449097
1712834620075715300,9.49971533203125,-0.6824892163276672,-0.28351783752441406,0.6367506384849548
1712834620095715300,9.51971533203125,-0.6550002694129944,-0.3012329339981079,0.515188455581665
1712834620115715300,9.53971533203125,-0.6250678896903992,-0.2572506368160248,0.33315062522888184
1712834620135715300,9.55971533203125,-0.6623306274414062,0.023136520758271217,0.17493653297424316
1712834620155715000,9.579715087890625,-0.5810855627059937,0.5466480255126953,0.033826664090156555
1712834620175715000,9.599715087890624,-0.41920626163482666,1.1037571430206299,-0.09506590664386749
1712834620195715000,9.619715087890626,-0.21090123057365417,1.7170658111572266,-0.2606103718280792
1712834620215715000,9.639715087890625,0.04199698567390442,2.217364549636841,-0.4371504485607147
1712834620235715000,9.659715087890625,0.44577890634536743,2.6242008209228516,-0.6491206884384155
1712834620255715000,9.679715087890624,0.8196284174919128,2.820899248123169,-0.7938957214355469
1712834620275715000,9.699715087890626,0.9424123764038086,3.0560824871063232,-0.7609090209007263
1712834620295715000,9.719715087890625,0.8373435139656067,3.208798885345459,-0.7896196842193604
1712834620315715000,9.739715087890625,0.5593998432159424,3.2350659370422363,-1.0101420879364014
1712834620335715000,9.759715087890624,0.36453384160995483,3.088458299636841,-1.1347585916519165
1712834620355715000,9.779715087890626,0.30405816435813904,3.264387607574463,-1.3167964220046997
1712834620375715000,9.799715087890625,0.0529925599694252,3.7689621448516846,-1.393154501914978
1712834620395715000,9.819715087890625,-0.8553640842437744,4.757342338562012,-1.8537468910217285
1712834620415715300,9.83971533203125,-1.287245750427246,3.879528760910034,-1.679039478302002
1712834620435715300,9.85971533203125,-0.4833471179008484,2.421393394470215,-1.4872277975082397
1712834620455715300,9.87971533203125,-0.2952006161212921,1.3108404874801636,-1.3039681911468506
1712834620475715300,9.89971533203125,-0.6122397184371948,0.2680934965610504,-0.9111818671226501
1712834620495715300,9.91971533203125,-0.554818332195282,-0.5614615082740784,-0.7462482452392578
1712834620515715000,9.939715087890624,-0.5041165351867676,-0.966465175151825,-0.49090659618377686
1712834620535715000,9.959715087890626,-0.47051894664764404,-0.7911468744277954,-0.13660474121570587
1712834620555715300,9.97971533203125,-0.6049093008041382,-0.13141238689422607,0.13095423579216003
1712834620575715300,9.99971533203125,-0.7673994898796082,0.5576435923576355,0.03504839166998863
1712834620595715300,10.01971533203125,-0.794277548789978,1.2357040643692017,-0.1097266674041748
1712834620615715300,10.03971533203125,-0.7808384895324707,1.8178585767745972,-0.21968241035938263
1712834620635715300,10.05971533203125,-0.8382598161697388,1.8862755298614502,-0.09323330968618393
1712834620655715000,10.079715087890625,-0.8486445546150208,1.6596444845199585,0.2531272768974304
1712834620675715000,10.099715087890624,-0.9543242454528809,1.1715631484985352,0.668515682220459
1712834620695715000,10.119715087890626,-1.0862711668014526,0.491670161485672,0.9104182720184326
1712834620715715000,10.139715087890625,-1.0990992784500122,-0.1100321039557457,0.9678395986557007
1712834620735715000,10.159715087890625,-1.030071496963501,-0.5064836740493774,1.0344239473342896
1712834620755715000,10.179715087890624,-0.7881689071655273,-0.6598108410835266,1.0051023960113525
1712834620775715000,10.199715087890626,-0.35384368896484375,-0.9206503033638,1.124832034111023
1712834620795715000,10.219715087890625,0.1336267739534378,-1.2181416749954224,1.2531137466430664
1712834620815715000,10.239715087890625,0.5740606188774109,-1.755703091621399,1.2714396715164185
1712834620835715000,10.259715087890624,1.0224356651306152,-2.432541847229004,1.1706469058990479
1712834620855715000,10.279715087890626,1.4268285036087036,-2.9676597118377686,1.5182292461395264
1712834620875715000,10.299715087890625,2.0199787616729736,-3.488116979598999,1.8981873989105225
1712834620895715000,10.319715087890625,2.28937029838562,-3.7550649642944336,1.8584811687469482
1712834620915715300,10.33971533203125,2.1061105728149414,-4.344550132751465,2.1278727054595947
1712834620935715300,10.35971533203125,1.2570079565048218,-4.717177867889404,2.3557255268096924
1712834620955715300,10.37971533203125,-0.035582900047302246,-4.563239574432373,2.396653413772583
1712834620975715300,10.39971533203125,-1.1400272846221924,-5.434333801269531,2.212783098220825
1712834620995715300,10.41971533203125,-1.5205962657928467,-6.561379909515381,1.1364384889602661
1712834621015715000,10.439715087890624,-0.9677632451057434,-5.624312877655029,0.25129470229148865
1712834621035715000,10.459715087890626,-0.13209961354732513,-4.735503673553467,0.9562332034111023
1712834621055715300,10.47971533203125,0.7102835774421692,-4.605389595031738,2.290973663330078
1712834621075715300,10.49971533203125,1.1122329235076904,-4.681136608123779,2.3783273696899414
1712834621095715300,10.51971533203125,1.032820463180542,-4.014682769775391,1.3129785060882568
1712834621115715300,10.53971533203125,0.7060074806213379,-1.7624225616455078,0.5946009755134583
1712834621135715300,10.55971533203125,0.517250120639801,0.41836634278297424,0.3807981312274933
1712834621155715000,10.579715087890625,0.7567093372344971,2.307772636413574,0.1077413558959961
1712834621175715000,10.599715087890624,0.935081958770752,3.4861316680908203,-0.2410627007484436
1712834621195715000,10.619715087890626,0.925308108329773,3.895411252975464,-0.41638103127479553
1712834621215715000,10.639715087890625,0.8000807762145996,3.597309112548828,-0.5452736020088196
1712834621235715000,10.659715087890625,0.5801692605018616,2.505692958831787,-0.7358635663986206
1712834621255715000,10.679715087890624,0.3975205719470978,1.2521973848342896,-0.8439866900444031
1712834621275715000,10.699715087890626,0.375529408454895,0.27603474259376526,-0.8244389891624451
1712834621295715000,10.719715087890625,0.4024074673652649,-0.2004401534795761,-0.8299368023872375
1712834621315715000,10.739715087890625,0.42012256383895874,-0.24564418196678162,-0.8403214812278748
1712834621335715000,10.759715087890624,0.4231768846511841,-0.10147999227046967,-0.8720865249633789
1712834621355715000,10.779715087890626,0.375529408454895,0.26198482513427734,-0.9496663808822632
1712834621375715000,10.799715087890625,0.37430769205093384,0.5393176674842834,-0.9899834990501404
1712834621395715000,10.819715087890625,0.38408151268959045,0.782442033290863,-0.9514989852905273
1712834621415715300,10.83971533203125,0.3877467215061188,0.9498190879821777,-0.8739190697669983
1712834621435715300,10.85971533203125,0.40851613879203796,0.9718102216720581,-0.7694611549377441
1712834621455715300,10.87971533203125,0.3810271918773651,0.8258134722709656,-0.6576728224754333
1712834621475715300,10.89971533203125,0.285121351480484,0.5784130096435547,-0.5464953184127808
1712834621495715300,10.91971533203125,0.19898934662342072,0.3285691440105438,-0.45181119441986084
1712834621515715000,10.939715087890624,0.13607023656368256,0.11293371021747589,-0.353461891412735
1712834621535715000,10.959715087890626,0.04566217586398125,-0.0214566420763731,-0.23923009634017944
1712834621555715300,10.97971533203125,-0.06368270516395569,0.007864889688789845,-0.10239628702402115
1712834621575715300,10.99971533203125,-0.1186605766415596,0.0872773751616478,0.021609358489513397
1712834621595715300,11.01971533203125,-0.098502017557621,0.19723311066627502,0.1321759670972824
1712834621615715300,11.03971533203125,-0.13271047174930573,0.2955824136734009,0.23602305352687836
1712834621635715300,11.05971533203125,-0.18768835067749023,0.3157409727573395,0.30199649930000305
1712834621655715000,11.079715087890625,-0.22678372263908386,0.2241111844778061,0.3862959146499634
1712834621675715000,11.099715087890624,-0.3000875413417816,0.05734497308731079,0.5041928887367249
1712834621695715000,11.119715087890626,-0.4118759036064148,-0.12713633477687836,0.6055965423583984
1712834621715715000,11.139715087890625,-0.4888449013233185,-0.2957351505756378,0.6905068159103394
1712834621735715000,11.159715087890625,-0.5328271985054016,-0.3788128197193146,0.7699192762374878
1712834621755715000,11.179715087890624,-0.593913733959198,-0.3635411858558655,0.79129958152771
1712834621775715000,11.199715087890626,-0.584139883518219,-0.41485387086868286,0.6837872862815857
1712834621795715000,11.219715087890625,-0.49128836393356323,-0.38614320755004883,0.5836054086685181
1712834621815715000,11.239715087890625,-0.5621487498283386,-0.28901562094688416,0.4571562707424164
1712834621835715000,11.259715087890624,-0.6097962260246277,-0.058108557015657425,0.28122708201408386
1712834621855715000,11.279715087890626,-0.5352706909179688,0.2803107798099518,0.09308059513568878
1712834621875715000,11.299715087890625,-0.4063780903816223,0.592462956905365,-0.12255483865737915
1712834621895715000,11.319715087890625,-0.28725937008857727,1.0267881155014038,-0.27404943108558655
1712834621915715300,11.33971533203125,-0.05207626149058342,1.599779725074768,-0.4279874563217163
1712834621935715300,11.35971533203125,0.2551889419555664,2.103743553161621,-0.643622875213623
1712834621955715300,11.37971533203125,0.46410486102104187,2.4293346405029297,-0.8219955563545227
1712834621975715300,11.39971533203125,0.7322747111320496,2.4030675888061523,-0.9062949419021606
1712834621995715300,11.41971533203125,1.08718740940094,2.3700807094573975,-1.0070877075195312
1712834622015715000,11.439715087890624,1.1910345554351807,2.709721803665161,-1.088943600654602
1712834622035715000,11.459715087890626,1.0865765810012817,3.342578172683716,-1.2654837369918823
1712834622055715300,11.47971533203125,0.802524209022522,4.085390567779541,-1.500666856765747
1712834622075715300,11.49971533203125,0.5123631954193115,4.356003761291504,-1.518381953239441
1712834622095715300,11.51971533203125,0.2997821271419525,4.213061332702637,-1.4524084329605103
1712834622115715300,11.53971533203125,0.010231993161141872,4.2100067138671875,-1.5910749435424805
1712834622135715300,11.55971533203125,-0.9030115604400635,4.632114887237549,-1.811597228050232
1712834622155715000,11.579715087890625,-2.110081195831299,4.586299896240234,-1.8940640687942505
1712834622175715000,11.599715087890624,-2.523637056350708,3.803781509399414,-1.3613895177841187
1712834622195715000,11.619715087890626,-2.297616958618164,2.594879150390625,-0.6949355602264404
1712834622215715000,11.639715087890625,-2.1730003356933594,0.9773080348968506,-0.07307475805282593
1712834622235715000,11.659715087890625,-2.001958131790161,-0.3818671405315399,0.33681583404541016
1712834622255715000,11.679715087890624,-1.677588701248169,-1.2218068838119507,0.33681583404541016
1712834622275715000,11.699715087890626,-1.289689302444458,-1.7636443376541138,0.37774381041526794
1712834622295715000,11.719715087890625,-0.5731443166732788,-1.8656587600708008,0.9018661975860596
1712834622315715000,11.739715087890625,-0.15775595605373383,-1.5724434852600098,1.1682034730911255
1712834622335715000,11.759715087890624,0.08170322328805923,-1.1045206785202026,1.2665526866912842
1712834622355715000,11.779715087890626,0.3901901841163635,-0.8424595594406128,1.6123024225234985
1712834622375715000,11.799715087890625,0.9075930118560791,-1.0177778005599976,1.8163315057754517
1712834622395715000,11.819715087890625,1.4726433753967285,-1.3476450443267822,1.8804723024368286
1712834622415715300,11.83971533203125,1.8715384006500244,-2.1631500720977783,1.9568305015563965
1712834622435715300,11.85971533203125,1.8232800960540771,-3.5266013145446777,2.209728717803955
1712834622455715300,11.87971533203125,1.1385000944137573,-4.326223850250244,2.338010311126709
1712834622475715300,11.89971533203125,0.13545936346054077,-4.862563610076904,2.3728296756744385
1712834622495715300,11.91971533203125,-0.5603161454200745,-5.912030220031738,1.7576884031295776
1712834622515715000,11.939715087890624,-0.9372199773788452,-5.771531105041504,0.8749880790710449
1712834622535715000,11.959715087890626,-0.9634872078895569,-4.338441371917725,0.8676577210426331
1712834622555715300,11.97971533203125,-0.3599523603916168,-3.736739158630371,1.743638515472412
1712834622575715300,11.99971533203125,1.0755809545516968,-4.625547885894775,2.7643942832946777
1712834622595715300,12.01971533203125,1.6687310934066772,-6.124000549316406,2.703307867050171
1712834622615715300,12.03971533203125,0.7823656797409058,-5.645081996917725,1.3471869230270386
1712834622635715300,12.05971533203125,0.2393064647912979,-2.781956672668457,0.5286275148391724
1712834622655715000,12.079715087890625,0.5722280144691467,0.35666894912719727,0.4510476291179657
1712834622675715000,12.099715087890624,0.9717338681221008,3.0676889419555664,0.405843585729599
1712834622695715000,12.119715087890626,1.0059423446655273,4.48000955581665,0.19692768156528473
1712834622715715000,12.139715087890625,0.9472993016242981,4.280256271362305,0.0020616701804101467
1712834622735715000,12.159715087890625,0.8819366693496704,3.1104495525360107,-0.22823452949523926
1712834622755715000,12.179715087890624,0.5636758804321289,0.9198867082595825,-0.5709299445152283
1712834622775715000,12.199715087890626,0.2790127098560333,-0.4136321246623993,-0.6130796074867249
1712834622795715000,12.219715087890625,0.16600263118743896,-0.9444740414619446,-0.5758168697357178
1712834622815715000,12.239715087890625,0.164170041680336,-0.8546768426895142,-0.6197991371154785
1712834622835715000,12.259715087890624,0.22281309962272644,-0.2804635167121887,-0.7328092455863953
1712834622855715000,12.279715087890626,0.23075434565544128,0.5668066143989563,-0.8513170480728149
1712834622875715000,12.299715087890625,0.22159136831760406,1.3517683744430542,-0.9508880972862244
1712834622895715000,12.319715087890625,0.2344195395708084,1.806252121925354,-0.9741010069847107
1712834622915715300,12.33971533203125,0.2252565622329712,1.8410714864730835,-0.928286075592041
1712834622935715300,12.35971533203125,0.19715675711631775,1.552132248878479,-0.8555931448936462
1712834622955715300,12.37971533203125,0.18005253374576569,1.0811551809310913,-0.8042804598808289
1712834622975715300,12.39971533203125,0.1696678251028061,0.5582544803619385,-0.7548003792762756
1712834622995715300,12.41971533203125,0.1391245573759079,0.12515102326869965,-0.6857725977897644
1712834623015715000,12.439715087890624,0.11285735666751862,-0.06543894112110138,-0.5971971154212952
1712834623035715000,12.459715087890626,0.0884227454662323,0.03352123126387596,-0.5177846550941467
1712834623055715300,12.47971533203125,0.09941831976175308,0.3139083683490753,-0.46036332845687866
1712834623075715300,12.49971533203125,0.16050484776496887,0.610788881778717,-0.39011383056640625
1712834623095715300,12.51971533203125,0.2252565622329712,0.8166504502296448,-0.3119230568408966
1712834623115715300,12.53971533203125,0.2252565622329712,0.9192758202552795,-0.24533875286579132
1712834623135715300,12.55971533203125,0.19104810059070587,0.8905651569366455,-0.16898059844970703
1712834623155715000,12.579715087890625,0.17333301901817322,0.6724863052368164,-0.09628763794898987
1712834623175715000,12.599715087890624,0.16783522069454193,0.3151301145553589,-0.023594669997692108
1712834623195715000,12.619715087890626,0.09147707372903824,-0.006795875728130341,0.06314819306135178
1712834623215715000,12.639715087890625,-0.006872233934700489,-0.12163854390382767,0.16638441383838654
1712834623235715000,12.659715087890625,-0.07284568250179291,-0.0342848114669323,0.2439643144607544
1712834623255715000,12.679715087890624,-0.17669276893138885,0.09644035249948502,0.2891683280467987
1712834623275715000,12.699715087890626,-0.3367394804954529,0.23205243051052094,0.3600287139415741
1712834623295715000,12.719715087890625,-0.47540587186813354,0.349338561296463,0.4657084047794342
1712834623315715000,12.739715087890625,-0.5254968404769897,0.3456733822822571,0.5469534397125244
1712834623335715000,12.759715087890624,-0.5273294448852539,0.24549147486686707,0.5823836326599121
1712834623355715000,12.779715087890626,-0.5328271985054016,0.1373683214187622,0.6172029972076416
1712834623375715000,12.799715087890625,-0.5230533480644226,0.06956227868795395,0.6141486167907715
1712834623395715000,12.819715087890625,-0.5438227653503418,-0.06177374720573425,0.6165921092033386
1712834623415715300,12.83971533203125,-0.5413793325424194,-0.38431060314178467,0.5750532746315002
1712834623435715300,12.85971533203125,-0.4717406928539276,-0.6964627504348755,0.5329035520553589
1712834623455715300,12.87971533203125,-0.5792529582977295,-0.7636579275131226,0.435165137052536
1712834623475715300,12.89971533203125,-0.5535966157913208,-0.5058727860450745,0.27145323157310486
1712834623495715300,12.91971533203125,-0.38438695669174194,0.0029779679607599974,0.11201741546392441
1712834623515715000,12.939715087890624,-0.24938572943210602,0.6101779937744141,-0.03214678168296814
1712834623535715000,12.959715087890626,0.00045814894838258624,1.2247084379196167,-0.1702023297548294
1712834623555715300,12.97971533203125,0.4005748927593231,1.84534752368927,-0.42615485191345215
1712834623575715300,12.99971533203125,0.7457137703895569,2.5350143909454346,-0.6723335385322571
1712834623595715300,13.01971533203125,1.0309878587722778,3.052417278289795,-0.8024478554725647
1712834623615715300,13.03971533203125,1.2264647483825684,3.3492977619171143,-0.919123113155365
1712834623635715300,13.05971533203125,1.2240211963653564,3.527059555053711,-1.0883327722549438
1712834623655715000,13.079715087890625,1.183704137802124,3.638847827911377,-1.2092840671539307
1712834623675715000,13.099715087890624,1.1940888166427612,3.462918758392334,-1.3516156673431396
1712834623695715000,13.119715087890626,1.0963504314422607,3.111060380935669,-1.3968197107315063
1712834623715715000,13.139715087890625,0.8941540122032166,3.329139232635498,-1.8390861749649048
1712834623735715000,13.159715087890625,0.20876319706439972,4.315075874328613,-1.9160552024841309
1712834623755715000,13.179715087890624,-0.8498662710189819,5.023068428039551,-2.15612530708313
1712834623775715000,13.199715087890626,-1.2921327352523804,5.057277202606201,-1.9582048654556274
1712834623795715000,13.219715087890625,-1.03984534740448,4.281477928161621,-1.6533831357955933
1712834623815715000,13.239715087890625,-0.6684392690658569,2.3749678134918213,-1.4389694929122925
1712834623835715000,13.259715087890624,-0.8046622276306152,0.5020548701286316,-1.2202796936035156
1712834623855715000,13.279715087890626,-1.0068585872650146,-0.9371436238288879,-0.8177194595336914
1712834623875715000,13.299715087890625,-0.9989174008369446,-1.6897295713424683,-0.24045182764530182
1712834623895715000,13.319715087890625,-0.8920159935951233,-1.4820353984832764,0.09980010986328125
1712834623915715300,13.33971533203125,-0.7044803500175476,-1.069090485572815,0.3893502354621887
1712834623935715300,13.35971533203125,-0.6214026808738708,-0.540081262588501,0.8047385811805725
1712834623955715300,13.37971533203125,-0.5700899958610535,-0.3360522389411926,1.1883620023727417
1712834623975715300,13.39971533203125,-0.3410155177116394,-0.7453319430351257,1.504790186882019
1712834623995715300,13.41971533203125,-0.06612616032361984,-1.5419002771377563,1.8725310564041138
1712834624015715000,13.439715087890624,0.2503020465373993,-2.368400812149048,2.232330799102783
1712834624035715000,13.459715087890626,0.5410739183425903,-3.264540195465088,2.385657787322998
1712834624055715300,13.47971533203125,0.889267086982727,-3.7966039180755615,2.3502275943756104
1712834624075715300,13.49971533203125,1.2447906732559204,-4.026288986206055,2.4339160919189453
1712834624095715300,13.51971533203125,1.4188872575759888,-4.348825931549072,2.6416103839874268
1712834624115715300,13.53971533203125,0.7719809412956238,-4.91754150390625,3.025233745574951
1712834624135715300,13.55971533203125,-0.4075998365879059,-5.145394325256348,2.8859565258026123
1712834624155715000,13.579715087890625,-1.460120677947998,-6.840545177459717,2.5762479305267334
1712834624175715000,13.599715087890624,-2.1766655445098877,-7.051904678344727,1.6379587650299072
1712834624195715000,13.619715087890626,-1.8559613227844238,-5.9517364501953125,1.2421181201934814
1712834624215715000,13.639715087890625,-1.3788756132125854,-4.820414066314697,1.0405325889587402
1712834624235715000,13.659715087890625,-0.19257527589797974,-4.031786918640137,1.436373233795166
1712834624255715000,13.679715087890624,1.0847439765930176,-3.4251978397369385,2.1303162574768066
1712834624275715000,13.699715087890626,0.7701483368873596,-2.5938100814819336,1.353906512260437
1712834624295715000,13.719715087890625,0.42928555607795715,-0.36964982748031616,0.3288745880126953
1712834624315715000,13.739715087890625,0.6968445181846619,1.4397330284118652,-0.08773551881313324
1712834624335715000,13.759715087890624,1.0719157457351685,2.888094425201416,-0.21235203742980957
1712834624355715000,13.779715087890626,1.0829113721847534,3.756134033203125,-0.24289529025554657
1712834624375715000,13.799715087890625,0.7811439037322998,3.4806337356567383,-0.23189972341060638
1712834624395715000,13.819715087890625,0.5068654417991638,2.131843328475952,-0.39622247219085693
1712834624415715300,13.83971533203125,0.2551889419555664,0.3407864570617676,-0.6601162552833557
1712834624435715300,13.85971533203125,0.05665775015950203,-0.9511935710906982,-0.758465588092804
1712834624455715300,13.87971533203125,0.09269879758358002,-1.3061062097549438,-0.7987826466560364
1712834624475715300,13.89971533203125,0.21914790570735931,-0.7373906970024109,-0.8171086311340332
1712834624495715300,13.91971533203125,0.2893974184989929,0.2442697435617447,-0.8287150859832764
1712834624515715000,13.939715087890624,0.22281309962272644,0.9504299759864807,-0.8934667706489563
1712834624535715000,13.959715087890626,0.12996158003807068,1.236925721168518,-0.9521098136901855
1712834624555715300,13.97971533203125,0.12507465481758118,1.3138947486877441,-0.957607626914978
1712834624575715300,13.99971533203125,0.19104810059070587,1.3059535026550293,-0.9117927551269531
1712834624595715300,14.01971533203125,0.26740625500679016,1.313283920288086,-0.844597578048706
1712834624615715300,14.03971533203125,0.3407101035118103,1.334664225578308,-0.7639633417129517
1712834624635715300,14.05971533203125,0.3908010423183441,1.2821297645568848,-0.6790530681610107
1712834624655715000,14.079715087890625,0.37797287106513977,1.159956693649292,-0.6369034051895142
1712834624675715000,14.099715087890624,0.35964691638946533,0.9009498953819275,-0.5892558693885803
1712834624695715000,14.119715087890626,0.39324450492858887,0.7103599309921265,-0.5269476175308228
1712834624715715000,14.139715087890625,0.4579962193965912,0.6932557225227356,-0.4579198658466339
1712834624735715000,14.159715087890625,0.4922046661376953,0.8050440549850464,-0.3522401750087738
1712834624755715000,14.179715087890624,0.44394633173942566,0.8490263223648071,-0.22029328346252441
1712834624775715000,14.199715087890626,0.3248275816440582,0.6914231181144714,-0.10178542137145996
1712834624795715000,14.219715087890625,0.2594650089740753,0.3597232699394226,-0.015653422102332115
1712834624815715000,14.239715087890625,0.19288070499897003,0.015195272862911224,0.06864598393440247
1712834624835715000,14.259715087890624,0.01817324012517929,-0.21387919783592224,0.17615826427936554
1712834624855715000,14.279715087890626,-0.1748601794242859,-0.2926807999610901,0.3105486333370209
1712834624875715000,14.299715087890625,-0.3000875413417816,-0.3788128197193146,0.39240455627441406
1712834624895715000,14.319715087890625,-0.4063780903816223,-0.5413029789924622,0.4314999282360077
1712834624915715300,14.33971533203125,-0.5407684445381165,-0.7190647721290588,0.46815183758735657
1712834624935715300,14.35971533203125,-0.5969680547714233,-0.8070293664932251,0.5298492312431335
1712834624955715300,14.37971533203125,-0.593302845954895,-0.6567565202713013,0.600098729133606
1712834624975715300,14.39971533203125,-0.6165157556533813,-0.33971744775772095,0.6898959279060364
1712834624995682000,14.41968212890625,-0.6269004344940186,-0.04711298272013664,0.7112762331962585
1712834625015648500,14.4396484375,-0.5713117122650146,0.004810563754290342,0.6227007508277893
1712834625035615000,14.459614990234375,-0.6360634565353394,-0.06482807546854019,0.5658903121948242
1712834625055581700,14.479581787109375,-0.7857254147529602,-0.22426390647888184,0.4913647174835205
1712834625075548400,14.49954833984375,-0.8614727258682251,-0.3287218511104584,0.3954588770866394
1712834625095515100,14.51951513671875,-0.8058840036392212,-0.3665955066680908,0.22502748668193817
1712834625115481600,14.539481689453124,-0.6824892163276672,-0.17967073619365692,0.05887213721871376
1712834625135448300,14.5594482421875,-0.5309945940971375,0.22594378888607025,-0.08834638446569443
1712834625155414800,14.579414794921876,-0.30925053358078003,0.6456081867218018,-0.20379991829395294
1712834625175381500,14.599381591796876,-0.1791362315416336,0.9479864835739136,-0.34368807077407837
1712834625195348200,14.61934814453125,-0.039248090237379074,1.1068115234375,-0.5733733773231506
1712834625215314700,14.639314697265625,0.24724771082401276,1.0695487260818481,-0.7493025660514832
1712834625235281400,14.659281494140625,0.6229298114776611,1.1507937908172607,-0.9472229480743408
1712834625255248100,14.679248046875,0.9613491892814636,1.5270867347717285,-1.0858893394470215
1712834625275215000,14.699215087890625,1.2276864051818848,2.4372758865356445,-1.2269991636276245
1712834625295181800,14.719181884765625,1.190423607826233,3.688938856124878,-1.252044677734375
1712834625315148300,14.739148193359375,0.9766207933425903,4.649829864501953,-1.3491722345352173
1712834625335115000,14.759114990234375,0.7444919943809509,4.683427333831787,-1.5544229745864868
1712834625355081700,14.779081787109375,0.6003278493881226,4.125707626342773,-1.6405550241470337
1712834625375048400,14.79904833984375,0.8257371187210083,3.535000801086426,-1.536707878112793
1712834625395015200,14.81901513671875,0.4170682430267334,4.496502876281738,-1.9527071714401245
1712834625414981600,14.838981689453124,-0.955545961856842,4.468402862548828,-2.204383611679077
1712834625434948400,14.8589482421875,-1.3122912645339966,3.613802433013916,-2.033952236175537
1712834625454915000,14.8789150390625,-1.1064296960830688,2.544177293777466,-1.5293774604797363
1712834625474881800,14.8988818359375,-1.0099129676818848,1.455615520477295,-1.0926088094711304
1712834625494848300,14.91884814453125,-1.123533844947815,0.7946593165397644,-0.8012261390686035
1712834625514814700,14.938814697265625,-1.1504119634628296,0.2381610870361328,-0.5452736020088196
1712834625534781400,14.958781494140625,-1.0404561758041382,-0.1705077588558197,-0.15798501670360565
1712834625554748200,14.978748046875,-0.8969029188156128,-0.10636691004037857,0.3594178259372711
1712834625574715000,14.99871484375,-0.5755877494812012,-0.09170614182949066,0.7302130460739136
1712834625594715000,15.01871484375,-0.27382034063339233,-0.27985262870788574,0.990441620349884
1712834625614715000,15.03871484375,-0.050243668258190155,-0.6133850812911987,1.3618477582931519
1712834625634715000,15.05871484375,0.20387627184391022,-1.1002446413040161,1.7760143280029297
1712834625654715000,15.07871484375,0.650418758392334,-1.7709747552871704,2.0435733795166016
1712834625674715000,15.09871484375,1.3211487531661987,-2.775848150253296,2.2952497005462646
1712834625694715000,15.11871484375,1.6620116233825684,-3.5033886432647705,2.167578935623169
1712834625714715000,15.13871484375,1.5722143650054932,-4.146629810333252,2.2140047550201416
1712834625734715000,15.15871484375,1.2961033582687378,-4.763603687286377,2.7338509559631348
1712834625754715000,15.17871484375,0.5899431109428406,-5.491144180297852,2.5658631324768066
1712834625774715100,15.198715087890625,-0.4882340431213379,-6.18569803237915,2.3673319816589355
1712834625794715100,15.218715087890626,-1.4155274629592896,-6.742196083068848,2.134592294692993
1712834625814715100,15.238715087890625,-1.9255999326705933,-6.663394451141357,1.5108988285064697
1712834625834715100,15.258715087890625,-1.6885842084884644,-5.276730537414551,1.0069350004196167
1712834625854715100,15.278715087890625,-1.5554156303405762,-3.9028944969177246,1.0741301774978638
1712834625874715000,15.29871484375,-0.3568980097770691,-3.602959632873535,0.9831112623214722
1712834625894715000,15.31871484375,1.2930489778518677,-3.814929723739624,1.9885954856872559
1712834625914715000,15.33871484375,0.6229298114776611,-4.0226240158081055,1.7253124713897705
1712834625934715000,15.35871484375,0.2399173229932785,-3.035465717315674,0.3355940878391266
1712834625954715000,15.37871484375,0.5245805382728577,-0.8442921042442322,0.09369145333766937
1712834625974715000,15.39871484375,0.9527970552444458,1.4452308416366577,0.09369145333766937
1712834625994715000,15.41871484375,0.9399688839912415,2.902144432067871,0.01061378326267004
1712834626014715000,15.43871484375,0.7035640478134155,3.2460615634918213,-0.09934195876121521
1712834626034715000,15.45871484375,0.6009386777877808,2.823342800140381,-0.3180317282676697
1712834626054715000,15.47871484375,0.4873177409172058,1.846569299697876,-0.5336671471595764
1712834626074715000,15.49871484375,0.2606867551803589,0.8545241355895996,-0.6002514362335205
1712834626094715000,15.51871484375,0.1488984078168869,0.19540052115917206,-0.5568800568580627
1712834626114715000,15.53871484375,0.17516560852527618,-0.06910412758588791,-0.5367214679718018
1712834626134715000,15.55871484375,0.26190847158432007,0.08300131559371948,-0.5880341529846191
1712834626154715000,15.57871484375,0.3352122902870178,0.3811035454273224,-0.6833291053771973
1712834626174715000,15.59871484375,0.3455969989299774,0.6358343362808228,-0.7633524537086487
1712834626194715000,15.61871484375,0.37430769205093384,0.9235519170761108,-0.8012261390686035
1712834626214715000,15.63871484375,0.41828998923301697,1.3041208982467651,-0.786565363407135
1712834626234715000,15.65871484375,0.456163614988327,1.581453800201416,-0.747469961643219
1712834626254715000,15.67871484375,0.45982882380485535,1.6449837684631348,-0.6558402180671692
1712834626274715100,15.698715087890625,0.437226802110672,1.4855479001998901,-0.5672647356987
1712834626294715100,15.718715087890626,0.4329507350921631,1.1929434537887573,-0.5061782002449036
1712834626314715100,15.738715087890625,0.4072943925857544,0.8838456273078918,-0.4292092025279999
1712834626334715100,15.758715087890625,0.3914119005203247,0.6865361928939819,-0.33024901151657104
1712834626354715100,15.778715087890625,0.3871358633041382,0.5790238976478577,-0.21968241035938263
1712834626374715000,15.79871484375,0.3455969989299774,0.4965570867061615,-0.11400272697210312
1712834626394715000,15.81871484375,0.25763240456581116,0.3853796124458313,-0.027259862050414085
1712834626414715000,15.83871484375,0.15745051205158234,0.20028744637966156,0.036880988627672195
1712834626434715000,15.85871484375,0.03344487398862839,-0.013515393249690533,0.12667818367481232
1712834626454715000,15.87871484375,-0.11560624837875366,-0.1802816092967987,0.2134210467338562
1712834626474715000,15.89871484375,-0.2347249686717987,-0.3073415756225586,0.2848922908306122
1712834626494715000,15.91871484375,-0.36483925580978394,-0.439288467168808,0.33315062522888184
1712834626514715000,15.93871484375,-0.5242751240730286,-0.5217552781105042,0.3997349441051483
1712834626534715000,15.95871484375,-0.6562219858169556,-0.5602397918701172,0.5005277395248413
1712834626554715000,15.97871484375,-0.7020368576049805,-0.5663484334945679,0.5432882905006409
1712834626574715000,15.99871484375,-0.6843217611312866,-0.5058727860450745,0.5646685361862183
1712834626594715000,16.01871484375,-0.6513350605964661,-0.30978503823280334,0.5591707825660706
1712834626614715000,16.03871484375,-0.6085745096206665,0.05490151420235634,0.49625164270401
1712834626634715000,16.05871484375,-0.5566509366035461,0.28275424242019653,0.4363868534564972
1712834626654715000,16.07871484375,-0.47479501366615295,0.2796999216079712,0.36858081817626953
1712834626674715000,16.09871484375,-0.5450445413589478,0.043905939906835556,0.25557073950767517
1712834626694715000,16.11871484375,-0.6336199641227722,-0.11614075303077698,0.08452847599983215
1712834626714715000,16.13871484375,-0.6287330389022827,-0.08009970188140869,-0.07368562370538712
1712834626734715000,16.15871484375,-0.5108360648155212,0.21067215502262115,-0.3155882656574249
1712834626754715000,16.17871484375,-0.34284812211990356,0.7091382145881653,-0.5330562591552734
1712834626774715100,16.198715087890626,-0.1693623960018158,1.3878095149993896,-0.6595053672790527
1712834626794715100,16.218715087890626,0.18860463798046112,2.0408244132995605,-0.8336020112037659
1712834626814715100,16.238715087890625,0.52702397108078,2.480647325515747,-0.9398925304412842
1712834626834715100,16.258715087890625,0.699288010597229,2.8355600833892822,-1.0767263174057007
1712834626854715100,16.278715087890625,0.8776606321334839,3.2741613388061523,-0.9789879322052002
1712834626874715000,16.29871484375,0.9338602423667908,3.6382369995117188,-0.8641452193260193
1712834626894715000,16.31871484375,0.6638578176498413,3.203300952911377,-0.9606619477272034
1712834626914715000,16.33871484375,0.4482223689556122,2.9033660888671875,-1.2269991636276245
1712834626934715000,16.35871484375,0.2692388594150543,3.02248477935791,-1.2581533193588257
1712834626954715000,16.37871484375,-0.14065171778202057,3.814777135848999,-1.5458709001541138
1712834626974715000,16.39871484375,-1.260367751121521,4.883180618286133,-2.0736584663391113
1712834626994715000,16.41871484375,-2.7545440196990967,5.4830498695373535,-2.022345781326294
1712834627014715000,16.43871484375,-2.8651106357574463,5.138522148132324,-0.6656140685081482
1712834627034715000,16.45871484375,-2.0227274894714355,3.138549327850342,0.14561499655246735
1712834627054715000,16.47871484375,-1.5205962657928467,0.07322747260332108,0.4003458023071289
1712834627074715000,16.49871484375,-0.8724682927131653,-2.265164613723755,0.544510006904602
1712834627094715000,16.51871484375,0.08170322328805923,-3.181462526321411,0.6624069809913635
1712834627114715000,16.53871484375,0.982729434967041,-2.8033368587493896,0.9024770259857178
1712834627134715000,16.55871484375,1.4604260921478271,-1.7288249731063843,1.3368022441864014
1712834627154715000,16.57871484375,1.8599319458007812,-1.024497389793396,1.9922606945037842
1712834627174715000,16.59871484375,2.2539401054382324,-1.444772720336914,2.393599033355713
1712834627194715000,16.61871484375,2.4408648014068604,-2.5681538581848145,2.4931700229644775
1712834627214715000,16.63871484375,2.012037515640259,-4.376925945281982,2.5512022972106934
1712834627234715000,16.65871484375,0.7988590002059937,-5.926080226898193,2.388712167739868
1712834627254715000,16.67871484375,-0.6831000447273254,-7.087945938110352,1.4418710470199585
1712834627274715100,16.698715087890626,-1.2359330654144287,-6.477691650390625,0.5597816109657288
1712834627294715100,16.718715087890626,-0.8345946669578552,-4.770934104919434,0.5878814458847046
1712834627314715100,16.738715087890625,0.06154467165470123,-4.551633358001709,1.5805374383926392
1712834627334715100,16.758715087890625,1.192256212234497,-5.014668941497803,3.381978988647461
1712834627354715100,16.778715087890625,1.1232284307479858,-6.351242542266846,2.36611008644104
1712834627374715000,16.79871484375,0.5783366560935974,-5.031162738800049,0.6550766229629517
1712834627394715000,16.81871484375,-0.058795779943466187,-1.9432387351989746,0.415617436170578
1712834627414715000,16.83871484375,0.13973543047904968,0.48311805725097656,0.27695104479789734
1712834627434715000,16.85871484375,0.4879286289215088,2.31876802444458,0.03260493278503418
1712834627454715000,16.87871484375,0.5355761051177979,3.1800880432128906,-0.24472789466381073
1712834627474715000,16.89871484375,0.456163614988327,3.0096566677093506,-0.33452507853507996
1712834627494715000,16.91871484375,0.3248275816440582,2.0487656593322754,-0.4829653203487396
1712834627514715000,16.93871484375,0.14828753471374512,0.6694319248199463,-0.6863834857940674
1712834627534715000,16.95871484375,-0.035582900047302246,-0.43684500455856323,-0.6979898810386658
1712834627554715000,16.97871484375,-0.07773260027170181,-0.9035460352897644,-0.6466771960258484
1712834627574715000,16.99871484375,0.004123340360820293,-0.6579782366752625,-0.6692792177200317
1712834627594715000,17.01871484375,0.04382958263158798,-0.12652546167373657,-0.7212027907371521
1712834627614715000,17.03871484375,0.0377209298312664,0.4709007441997528,-0.8171086311340332
1712834627634715000,17.05871484375,0.11041389405727386,0.9296605587005615,-0.9087384343147278
1712834627654715000,17.07871484375,0.2356412708759308,1.2845731973648071,-0.9203448295593262
1712834627674715000,17.09871484375,0.32299500703811646,1.4464524984359741,-0.8439866900444031
1712834627694715000,17.11871484375,0.3700316250324249,1.3786464929580688,-0.7004333734512329
1712834627714715000,17.13871484375,0.37797287106513977,1.1550698280334473,-0.5471062064170837
1712834627734715000,17.15871484375,0.3859141170978546,0.8465828895568848,-0.44081562757492065
1712834627754715000,17.17871484375,0.33337971568107605,0.54359370470047,-0.3479641079902649
1712834627774715100,17.198715087890626,0.16722436249256134,0.34689509868621826,-0.2410627007484436
1712834627794715100,17.218715087890626,-0.006261368747800589,0.24121540784835815,-0.13232868909835815
1712834627814715100,17.238715087890625,-0.15653422474861145,0.2241111844778061,-0.027259862050414085
1712834627834715100,17.258715087890625,-0.28787025809288025,0.30718886852264404,0.06314819306135178
1712834627854715100,17.278715087890625,-0.3556762933731079,0.45807257294654846,0.1272890418767929
1712834627874715000,17.29871484375,-0.34834590554237366,0.5716935396194458,0.1938733607530594
1712834627894715000,17.31871484375,-0.34284812211990356,0.630336582660675,0.26717719435691833
1712834627914715000,17.33871484375,-0.3831652104854584,0.6181192994117737,0.35330918431282043
1712834627934715000,17.35871484375,-0.4216497242450714,0.5515349507331848,0.40767619013786316
1712834627954715000,17.37871484375,-0.47540587186813354,0.5148830413818359,0.4369977116584778
1712834627974715000,17.39871484375,-0.5377141237258911,0.45379650592803955,0.42844560742378235
1712834627994715000,17.41871484375,-0.5291619896888733,0.3157409727573395,0.3801872432231903
1712834628014715000,17.43871484375,-0.35445454716682434,0.19173532724380493,0.28122708201408386
1712834628034715000,17.45871484375,-0.2499966025352478,0.27114781737327576,0.18532124161720276
1712834628054715000,17.47871484375,-0.21762074530124664,0.48311805725097656,0.05826127156615257
1712834628074715000,17.49871484375,-0.20784689486026764,0.6895905137062073,-0.08345946669578552
1712834628094715000,17.51871484375,-0.16142113506793976,0.8215373754501343,-0.23373231291770935
1712834628114715000,17.53871484375,-0.016035212203860283,1.0322859287261963,-0.3626248836517334
1712834628134715000,17.55871484375,0.16661348938941956,1.4818826913833618,-0.5916993618011475
1712834628154715000,17.57871484375,0.26740625500679016,1.8936059474945068,-0.7144832611083984
1712834628174715000,17.59871484375,0.3254384696483612,2.0426571369171143,-0.7267005443572998
1712834628194715000,17.61871484375,0.3822489380836487,1.7830393314361572,-0.7309766411781311
1712834628214715000,17.63871484375,0.4268420934677124,1.3627640008926392,-0.7993935346603394
1712834628234715000,17.65871484375,0.660803496837616,1.0353401899337769,-0.776180624961853
1712834628254715000,17.67871484375,0.7677049040794373,1.3926963806152344,-0.7108180522918701
1712834628274715100,17.698715087890626,0.7670940160751343,1.6309338808059692,-0.6802747845649719
1712834628294715100,17.718715087890626,0.9918924570083618,2.4342217445373535,-0.977155327796936
1712834628314715100,17.738715087890625,1.0932960510253906,3.875863552093506,-1.3632221221923828
1712834628334715100,17.758715087890625,0.860556423664093,4.637612819671631,-1.5623642206192017
1712834628354715100,17.778715087890625,0.6516404747962952,4.984583854675293,-1.6741526126861572
1712834628374715000,17.79871484375,-0.30863967537879944,5.026123046875,-2.3760366439819336
1712834628394715000,17.81871484375,-1.4228578805923462,4.325460433959961,-2.506150960922241
1712834628414715000,17.83871484375,-1.2805262804031372,2.5594489574432373,-1.6668221950531006
1712834628434715000,17.85871484375,-0.7887797355651855,0.5124396085739136,-1.016250729560852
1712834628454715000,17.87871484375,-0.8419250249862671,-0.9438631534576416,-0.5672647356987
1712834628474715000,17.89871484375,-0.5804746747016907,-1.5113569498062134,0.072311170399189
1712834628494715000,17.91871484375,0.03527746722102165,-1.405677318572998,0.7845800518989563
1712834628514715000,17.93871484375,0.28267788887023926,-1.0324386358261108,1.3380240201950073
1712834628534715000,17.95871484375,0.650418758392334,-0.8650615215301514,1.846874713897705
1712834628554715000,17.97871484375,1.0456485748291016,-1.1601094007492065,2.0997729301452637
1712834628574715000,17.99871484375,1.4830280542373657,-2.1106157302856445,2.380160093307495
1712834628594715000,18.01871484375,1.6980526447296143,-3.483229875564575,2.670931816101074
1712834628614715000,18.03871484375,1.096961259841919,-5.241300106048584,2.720412015914917
1712834628634715000,18.05871484375,-0.00809396430850029,-5.938297271728516,2.410092353820801
1712834628654715000,18.07871484375,-1.278693675994873,-5.941962718963623,1.979432463645935
1712834628674715000,18.09871484375,-2.213928461074829,-6.24617338180542,1.3490195274353027
1712834628694715000,18.11871484375,-2.378861904144287,-6.115448474884033,0.630031168460846
1712834628714715000,18.13871484375,-2.3043363094329834,-5.238245964050293,0.9067531228065491
1712834628734715000,18.15871484375,-1.5199854373931885,-5.283449649810791,1.9452240467071533
1712834628754715000,18.17871484375,1.5380059480667114,-6.252892971038818,3.2023847103118896
1712834628774715100,18.198715087890626,1.165378212928772,-8.993234634399414,1.8425986766815186
1712834628794715100,18.218715087890626,-0.1589776873588562,-6.626131534576416,-0.16165021061897278
1712834628814715100,18.238715087890625,-0.23900102078914642,-1.6781232357025146,-0.05841398984193802
1712834628834715100,18.258715087890625,0.8562803864479065,2.7243826389312744,-0.07918340712785721
1712834628854715100,18.278715087890625,1.2026410102844238,6.517855644226074,-0.22395847737789154
1712834628874715000,18.29871484375,0.630871057510376,7.614969730377197,-0.07857254147529602
1712834628894715000,18.31871484375,0.0988074541091919,6.060317516326904,-0.41515928506851196
1712834628914715000,18.33871484375,0.164170041680336,2.8697686195373535,-0.8262715935707092
1712834628934715000,18.35871484375,0.09086620807647705,-0.34521523118019104,-0.7352526783943176
1712834628954715000,18.37871484375,0.06948592513799667,-2.502180337905884,-0.7548003792762756
1712834628974715000,18.39871484375,0.1996002197265625,-2.383061647415161,-0.8281041979789734
1712834628994715000,18.41871484375,0.2301434874534607,-1.1808788776397705,-0.7810675501823425
1712834629014715000,18.43871484375,0.2594650089740753,0.12087496370077133,-0.7340309619903564
1712834629034715000,18.45871484375,0.35353827476501465,1.1605676412582397,-0.7822893261909485
1712834629054715000,18.47871484375,0.45005497336387634,1.8490127325057983,-0.8617017865180969
1712834629074715000,18.49871484375,0.48426342010498047,2.2112557888031006,-0.8598691821098328
1712834629094715000,18.51871484375,0.4885394871234894,2.1855995655059814,-0.7590764164924622
1712834629114715000,18.53871484375,0.5416847467422485,1.8068630695343018,-0.6130796074867249
1712834629134715000,18.55871484375,0.5771149396896362,1.2515865564346313,-0.5031238794326782
1712834629154715000,18.57871484375,0.5215262174606323,0.6566037535667419,-0.3528510332107544
1712834629174715000,18.59871484375,0.3700316250324249,0.19051359593868256,-0.18364135921001434
1712834629194715000,18.61871484375,0.14706580340862274,-0.07704538106918335,-0.035811975598335266
1712834629214715000,18.63871484375,-0.09178250283002853,-0.1705077588558197,0.05398521572351456
1712834629234715000,18.65871484375,-0.27382034063339233,-0.10086912661790848,0.10896308720111847
1712834629254715000,18.67871484375,-0.35873061418533325,0.04634939879179001,0.1578323096036911
1712834629274715100,18.698715087890626,-0.38377609848976135,0.22777637839317322,0.24213171005249023
1712834629294715100,18.718715087890626,-0.3904955983161926,0.38415786623954773,0.34720054268836975
1712834629314715100,18.738715087890625,-0.3825543522834778,0.491670161485672,0.4217261075973511
1712834629334715100,18.758715087890625,-0.34834590554237366,0.5399284958839417,0.49991685152053833
1712834629354715100,18.778715087890625,-0.3165809214115143,0.4696790277957916,0.5897140502929688
1712834629374715000,18.79871484375,-0.3153591752052307,0.27725645899772644,0.629420280456543
1712834629394715000,18.81871484375,-0.35811975598335266,-0.12102767825126648,0.5762749910354614
1712834629414715000,18.83871484375,-0.4583016633987427,-0.4698317348957062,0.5219079852104187
1712834629434715000,18.85871484375,-0.6012440919876099,-0.6934084296226501,0.44371724128723145
1712834629454715000,18.87871484375,-0.6299547553062439,-0.6543130278587341,0.354530930519104
1712834629474715000,18.89871484375,-0.594524621963501,-0.467999130487442,0.122402124106884
1712834629494715000,18.91871484375,-0.4931209683418274,-0.020845776423811913,-0.1359938681125641
1712834629514715000,18.93871484375,-0.24144448339939117,0.6737080216407776,-0.353461891412735
1712834629534715000,18.95871484375,0.04444044828414917,1.4788284301757812,-0.5642104148864746
1712834629554715000,18.97871484375,0.37491855025291443,2.2417991161346436,-0.8109999895095825
1712834629574715000,18.99871484375,0.6290385127067566,2.60282039642334,-1.043739676475525
1712834629594715000,19.01871484375,0.8959866166114807,2.905198812484741,-1.1995102167129517
1712834629614715000,19.03871484375,1.12506103515625,3.086625814437866,-1.3632221221923828
1712834629634715000,19.05871484375,1.1855367422103882,3.23384428024292,-1.469512701034546
1712834629654715000,19.07871484375,0.9295842051506042,3.5032358169555664,-1.4023175239562988
1712834629674715000,19.09871484375,0.6015495657920837,3.319976329803467,-1.3668873310089111
1712834629694715000,19.11871484375,0.5539020895957947,3.03836727142334,-1.4591280221939087
1712834629714715000,19.13871484375,0.46105054020881653,4.0676751136779785,-1.4389694929122925
1712834629734715000,19.15871484375,-0.8602510094642639,5.300401210784912,-2.003408908843994
1712834629754715000,19.17871484375,-2.041053533554077,5.205106258392334,-1.973476529121399
1712834629774715100,19.198715087890626,-1.8193094730377197,3.9088504314422607,-1.3601678609848022
1712834629794715100,19.218715087890626,-0.9708175659179688,1.5002087354660034,-0.6790530681610107
1712834629814715100,19.238715087890625,-0.8529205918312073,-0.6665303111076355,0.20975585281848907
1712834629834715100,19.258715087890625,-1.00197172164917,-1.9047541618347168,0.7228826880455017
1712834629854715100,19.278715087890625,-0.7252497673034668,-2.8167760372161865,1.0313695669174194
1712834629874715000,19.29871484375,-0.032528575509786606,-3.0617330074310303,1.5255595445632935
1712834629894715000,19.31871484375,0.7866417169570923,-2.196136951446533,1.8499290943145752
1712834629914715000,19.33871484375,1.0297660827636719,-1.3891838788986206,1.8169423341751099
1712834629934715000,19.35871484375,1.2087496519088745,-1.2944997549057007,2.304412841796875
1712834629954715000,19.37871484375,1.3400856256484985,-1.8167896270751953,2.871295690536499
1712834629974715000,19.39871484375,1.0847439765930176,-3.4642932415008545,2.862743616104126
1712834629994715000,19.41871484375,0.13118331134319305,-5.393405437469482,2.8529698848724365
1712834630014715000,19.43871484375,-1.0282388925552368,-7.315798759460449,2.2744803428649902
1712834630034715000,19.45871484375,-1.7881553173065186,-7.578470706939697,0.9079748392105103
1712834630054715000,19.47871484375,-1.8223637342453003,-5.780083179473877,0.6556875109672546
1712834630074715000,19.49871484375,-1.1418598890304565,-4.252309322357178,1.818774938583374
1712834630094715000,19.51871484375,0.5404630303382874,-3.876627206802368,2.865187168121338
1712834630114715000,19.53871484375,1.2362385988235474,-4.89555025100708,2.2140047550201416
1712834630134715000,19.55871484375,1.0444267988204956,-4.775209903717041,0.609872579574585
1712834630154715000,19.57871484375,0.566730260848999,-2.248671293258667,0.16394096612930298
1712834630174715000,19.59871484375,0.5703954100608826,1.1538480520248413,0.11629346758127213
1712834630194715000,19.61871484375,0.8709411025047302,3.7579665184020996,0.10835222154855728
1712834630214715000,19.63871484375,0.8721628785133362,4.650440692901611,-0.06330090761184692
1712834630234715000,19.65871484375,0.7163922190666199,3.8783071041107178,-0.4243222773075104
1712834630254715000,19.67871484375,0.4867068827152252,2.466597557067871,-0.7535786628723145
1712834630274715100,19.698715087890626,0.22708915174007416,0.695699155330658,-0.8488736152648926
1712834630294715100,19.718715087890626,0.15683965384960175,-0.6402631402015686,-0.8293259143829346
1712834630314715100,19.738715087890625,0.24663683772087097,-1.109407663345337,-0.8464301824569702
1712834630334715100,19.758715087890625,0.327271044254303,-0.8320748209953308,-0.8293259143829346
1712834630354715100,19.778715087890625,0.346818745136261,-0.2566397488117218,-0.8042804598808289
1712834630374715000,19.79871484375,0.36942076683044434,0.49289190769195557,-0.8378780484199524
1712834630394715000,19.81871484375,0.37491855025291443,1.00907301902771,-0.8928559422492981
1712834630414715000,19.83871484375,0.3663664162158966,1.3505467176437378,-0.8959102630615234
1712834630434715000,19.85871484375,0.3828597962856293,1.428126573562622,-0.861090898513794
1712834630454715000,19.87871484375,0.45066583156585693,1.2754102945327759,-0.8171086311340332
1712834630474715000,19.89871484375,0.49464812874794006,1.0561096668243408,-0.7303657531738281
1712834630494715100,19.918715087890625,0.4922046661376953,0.9040042161941528,-0.6112470626831055
1712834630514715100,19.938715087890625,0.5013676285743713,0.8337547183036804,-0.48113274574279785
1712834630534715100,19.958715087890624,0.47937649488449097,0.7641160488128662,-0.31925344467163086
1712834630554715100,19.978715087890624,0.34804046154022217,0.6291148662567139,-0.14698944985866547
1712834630574714600,19.998714599609375,0.21914790570735931,0.48311805725097656,-0.012599095702171326
1712834630594714600,20.018714599609375,0.11957687139511108,0.33223432302474976,0.08941540122032166
1712834630614714600,20.038714599609374,-0.0013744467869400978,0.18501581251621246,0.19142989814281464
1712834630634714600,20.058714599609374,-0.13759739696979523,0.055512379854917526,0.3050508201122284
1712834630654714600,20.078714599609373,-0.26343563199043274,-0.10697777569293976,0.405843585729599
1712834630674714600,20.098714599609377,-0.3562871515750885,-0.2700788080692291,0.5023602843284607
1712834630694714600,20.118714599609376,-0.40515637397766113,-0.36476290225982666,0.6086508631706238
1712834630714714600,20.138714599609376,-0.4014911949634552,-0.34582608938217163,0.735710859298706
1712834630734714600,20.158714599609375,-0.40515637397766113,-0.3537673354148865,0.7876343727111816
1712834630754714600,20.178714599609375,-0.42348232865333557,-0.42157337069511414,0.7363216876983643
1712834630774715000,20.19871484375,-0.5108360648155212,-0.5803983211517334,0.6599635481834412
1712834630794715000,20.21871484375,-0.7502952218055725,-0.7410559058189392,0.6074291467666626
1712834630814715000,20.23871484375,-0.8113817572593689,-0.9713521003723145,0.43821945786476135
1712834630834715000,20.25871484375,-0.6348416805267334,-0.7434993386268616,0.152334526181221
1712834630854715000,20.27871484375,-0.48640143871307373,-0.1851685345172882,-0.1048397496342659
1712834630874714000,20.298714111328124,-0.19868391752243042,0.7940484881401062,-0.35040757060050964
1712834630894714000,20.318714111328124,0.051770828664302826,1.8520671129226685,-0.6039166450500488
1712834630914714000,20.338714111328127,0.18249599635601044,2.742708683013916,-0.8427649736404419
1712834630934714000,20.358714111328126,0.22159136831760406,3.318143606185913,-1.1255955696105957
1712834630954714000,20.378714111328126,0.11163562536239624,3.2967634201049805,-1.3674981594085693
1712834630974714000,20.398714111328125,0.08903361111879349,2.9229137897491455,-1.602681279182434
1712834630994714400,20.41871435546875,0.2496911734342575,2.351754903793335,-1.7786104679107666
1712834631014714400,20.43871435546875,0.2912299931049347,2.2424099445343018,-1.7236326932907104
1712834631034714400,20.45871435546875,0.22770002484321594,2.1739931106567383,-1.529988408088684
1712834631054714400,20.47871435546875,0.3871358633041382,1.9724074602127075,-1.3668873310089111
1712834631074714000,20.498714111328123,0.508698046207428,2.031050682067871,-1.289918303489685
1712834631094713600,20.518713623046875,0.4366159439086914,2.8942031860351562,-1.6130660772323608
1712834631114713600,20.538713623046874,-0.00931569468230009,3.717038631439209,-1.8708511590957642
1712834631134714000,20.558714111328126,-0.5810855627059937,4.558811187744141,-2.055943250656128
1712834631154714000,20.578714111328125,-0.9152288436889648,5.062774658203125,-1.4145348072052002
1712834631174714400,20.59871435546875,-0.4778493344783783,4.458629131317139,-1.0186941623687744
1712834631194714400,20.61871435546875,0.04505131021142006,2.2894465923309326,-0.7303657531738281
1712834631214714000,20.638714111328124,0.05604688450694084,0.24243713915348053,-0.08529205620288849
1712834631234714000,20.658714111328123,0.24908030033111572,-0.9127090573310852,0.5420665740966797
1712834631254714000,20.678714111328127,0.6656904220581055,-0.9169850945472717,0.7790822386741638
1712834631274714400,20.69871435546875,1.1336132287979126,-0.4130212664604187,1.0674107074737549
1712834631294714400,20.71871435546875,1.3584115505218506,-0.20715968310832977,1.540831208229065
1712834631314714400,20.73871435546875,1.733482837677002,-1.1992048025131226,1.9476674795150757
1712834631334714400,20.75871435546875,2.0334177017211914,-2.9639945030212402,2.1944570541381836
1712834631354714400,20.77871435546875,1.8354973793029785,-4.979849815368652,2.030745267868042
1712834631374714000,20.798714111328124,0.8587238192558289,-6.349409580230713,1.8871917724609375
1712834631394714000,20.818714111328124,-0.4155410826206207,-6.558936595916748,1.5933656692504883
1712834631414714000,20.838714111328127,-1.5468635559082031,-6.959053039550781,1.0820714235305786
1712834631434714000,20.858714111328126,-2.1149682998657227,-7.131317138671875,0.6978371739387512
1712834631454714000,20.878714111328126,-1.8028160333633423,-6.781291484832764,1.0820714235305786
1712834631474714400,20.89871435546875,-0.9085093140602112,-6.404998302459717,2.1999547481536865
1712834631494714400,20.91871435546875,0.13179416954517365,-6.078185558319092,2.5841891765594482
1712834631514714400,20.93871435546875,0.9851729273796082,-5.6670732498168945,1.123610258102417
1712834631534714400,20.95871435546875,0.517250120639801,-3.3244049549102783,-0.011988230049610138
1712834631554714400,20.97871435546875,-0.4827362596988678,0.45379650592803955,-0.4176027476787567
1712834631574714400,20.99871435546875,0.3810271918773651,2.9449050426483154,-0.34063372015953064
1712834631594714000,21.018714111328126,1.1830933094024658,4.453131198883057,-0.22456933557987213
1712834631614714000,21.038714111328126,1.1385000944137573,4.9021172523498535,-0.3381902575492859
1712834631634714000,21.058714111328126,0.5905539989471436,3.8642570972442627,-0.38095083832740784
1712834631654714000,21.078714111328125,0.32299500703811646,1.5441910028457642,-0.5550474524497986
1712834631674714600,21.098714599609377,0.30711251497268677,-0.6995170712471008,-0.7273114323616028
1712834631694714600,21.118714599609376,0.19043724238872528,-1.9805015325546265,-0.6405685544013977
1712834631714714600,21.138714599609376,0.20815233886241913,-2.259666919708252,-0.5446627140045166
1712834631734714400,21.15871435546875,0.21059578657150269,-1.687286138534546,-0.49762609601020813
1712834631754714400,21.17871435546875,0.09453139454126358,-0.7325037717819214,-0.5275585055351257
1712834631774714600,21.198714599609374,-0.021532999351620674,0.42814019322395325,-0.6167448163032532
1712834631794714600,21.218714599609374,0.012064588256180286,1.200273871421814,-0.6466771960258484
1712834631814715100,21.238715087890625,0.1342376321554184,1.7298940420150757,-0.6191883087158203
1712834631834715100,21.258715087890625,0.194713294506073,1.9534707069396973,-0.5251150131225586
1712834631854715100,21.278715087890625,0.22770002484321594,1.8093065023422241,-0.4176027476787567
1712834631874714600,21.298714599609376,0.25335636734962463,1.360931396484375,-0.3369685411453247
1712834631894714600,21.318714599609375,0.2649627923965454,0.8038222789764404,-0.3058144152164459
1712834631914714600,21.338714599609375,0.29856038093566895,0.3499494194984436,-0.25511258840560913
1712834631934714600,21.358714599609375,0.3260493278503418,0.11354457587003708,-0.18241962790489197
1712834631954714600,21.378714599609374,0.3419318199157715,0.06589708477258682,-0.11217013001441956
1712834631974714600,21.398714599609374,0.3223841190338135,0.20639608800411224,-0.025427265092730522
1712834631994714600,21.418714599609373,0.2545780837535858,0.33773213624954224,0.07536549866199493
1712834632014714600,21.438714599609376,0.18127426505088806,0.3603341281414032,0.1731039434671402
1712834632034714600,21.458714599609376,0.08475755155086517,0.25648704171180725,0.2690097689628601
1712834632054714600,21.478714599609376,-0.05451972410082817,0.06650795042514801,0.3850741684436798
1712834632074714600,21.498714599609375,-0.24388794600963593,-0.19494237005710602,0.4815908968448639
1712834632094714600,21.518714599609375,-0.44180828332901,-0.5052618980407715,0.5878814458847046
1712834632114714600,21.538714599609374,-0.6183483600616455,-0.7160104513168335,0.6825655698776245
1712834632134714600,21.558714599609374,-0.7179193496704102,-0.7935903072357178,0.7387651801109314
1712834632154714600,21.578714599609373,-0.7020368576049805,-0.6927975416183472,0.7760279178619385
1712834632174714600,21.598714599609377,-0.6299547553062439,-0.5553528666496277,0.7124979496002197
1712834632194714600,21.618714599609376,-0.5590944290161133,-0.4478405714035034,0.6843981742858887
1712834632214714600,21.638714599609376,-0.6018549799919128,-0.37453675270080566,0.6117051839828491
1712834632234714600,21.658714599609375,-0.7564038634300232,-0.4331798255443573,0.4760931134223938
1712834632254714600,21.678714599609375,-0.813825249671936,-0.5015967488288879,0.21464277803897858
1712834632274715100,21.698715087890626,-0.6849326491355896,-0.3061198592185974,-0.008323038928210735
1712834632294715100,21.718715087890626,-0.5597052574157715,0.24671320617198944,-0.17386752367019653
1712834632314715100,21.738715087890625,-0.4259257912635803,0.9430995583534241,-0.2832123935222626
1712834632334715100,21.758715087890625,-0.21212296187877655,1.5081499814987183,-0.4377613067626953
1712834632354715100,21.778715087890625,-0.03985895588994026,1.9534707069396973,-0.6998224854469299
1712834632374714600,21.798714599609376,0.12629638612270355,2.2558488845825195,-0.9221774339675903
1712834632394714600,21.818714599609375,0.4280638098716736,2.5655577182769775,-1.021748423576355
1712834632414714600,21.838714599609375,0.8049677014350891,2.656576633453369,-1.2208905220031738
1712834632434714600,21.858714599609375,1.0193814039230347,2.974837303161621,-1.3131312131881714
1712834632454714600,21.878714599609374,0.9033169746398926,3.48002290725708,-1.2917509078979492
1712834632474714600,21.898714599609374,0.6650795340538025,3.7121517658233643,-1.4829517602920532
1712834632494714600,21.918714599609373,0.45066583156585693,3.622354507446289,-1.5935183763504028
1712834632514714600,21.938714599609376,0.5337435007095337,3.6492326259613037,-1.8030451536178589
1712834632534714600,21.958714599609376,0.3358231782913208,4.580191135406494,-1.908113956451416
1712834632554714600,21.978714599609376,-0.9818131923675537,5.429904937744141,-2.346104383468628
1712834632574714600,21.998714599609375,-2.04349684715271,5.153793811798096,-2.1054234504699707
1712834632594714600,22.018714599609375,-1.715462327003479,3.9198458194732666,-1.260596752166748
1712834632614714600,22.038714599609374,-1.2304353713989258,1.9742400646209717,-0.353461891412735
1712834632634714600,22.058714599609374,-1.4717271327972412,0.2039526402950287,0.325209379196167
1712834632654714600,22.078714599609373,-1.3813190460205078,-1.1973721981048584,0.44921502470970154
1712834632674714600,22.098714599609377,-0.8840747475624084,-2.103285312652588,0.5109124183654785
1712834632694714600,22.118714599609376,-0.18829920887947083,-2.078850746154785,0.7332673668861389
1712834632714714600,22.138714599609376,0.23197607696056366,-1.0813078880310059,1.3600151538848877
1712834632734714600,22.158714599609375,0.7420485615730286,-0.6243806481361389,1.724090814590454
1712834632754714600,22.178714599609375,1.3119858503341675,-0.85284423828125,1.8706984519958496
1712834632774715100,22.198715087890626,1.7359262704849243,-1.7221055030822754,2.0484602451324463
1712834632794715100,22.218715087890626,1.9088011980056763,-2.966438055038452,2.377716541290283
1712834632814715100,22.238715087890625,1.4592043161392212,-4.601724147796631,2.4394140243530273
1712834632834715100,22.258715087890625,0.4824308156967163,-5.518632888793945,2.3929882049560547
1712834632854715100,22.278715087890625,-0.5713117122650146,-6.549162864685059,2.1663572788238525
1712834632874714600,22.298714599609376,-1.2108876705169678,-7.182019233703613,1.3386348485946655
1712834632894714600,22.318714599609375,-1.2243266105651855,-6.404387474060059,0.6544657349586487
1712834632914714600,22.338714599609375,-1.013578176498413,-4.725729942321777,0.8621599078178406
1712834632934714600,22.358714599609375,-0.18524488806724548,-3.9645917415618896,1.7528014183044434
1712834632954714600,22.378714599609374,1.0926852226257324,-4.392197608947754,2.812652587890625
1712834632974714600,22.398714599609374,1.2203559875488281,-5.182657241821289,2.0930533409118652
1712834632994714600,22.418714599609373,0.698677122592926,-4.217490196228027,0.7564802765846252
1712834633014714600,22.438714599609376,0.17333301901817322,-1.719662070274353,0.21769709885120392
1712834633034714600,22.458714599609376,0.37491855025291443,0.5686391592025757,0.08025242388248444
1712834633054714600,22.478714599609376,0.7115052938461304,2.7103326320648193,-0.047418415546417236
1712834633074714600,22.498714599609375,0.7237225770950317,3.9338958263397217,-0.2154063582420349
1712834633094714600,22.518714599609375,0.611934244632721,3.784233808517456,-0.3516293168067932
1712834633114714600,22.538714599609374,0.5703954100608826,2.7023913860321045,-0.4273765981197357
1712834633134714600,22.558714599609374,0.4311181604862213,1.1862239837646484,-0.6161339282989502
1712834633154714600,22.578714599609373,0.21853704750537872,-0.24503332376480103,-0.7034876942634583
1712834633174714600,22.598714599609377,0.14095716178417206,-0.9689086079597473,-0.6741661429405212
1712834633194714600,22.618714599609376,0.17272214591503143,-0.7990881204605103,-0.634459912776947
1712834633214714600,22.638714599609376,0.17272214591503143,-0.0996473953127861,-0.6711118221282959
1712834633234714600,22.658714599609375,0.2246456891298294,0.6352235078811646,-0.7902305722236633
1712834633254714600,22.678714599609375,0.3199406862258911,1.2039390802383423,-0.8971319794654846
1712834633274715100,22.698715087890626,0.3614795207977295,1.4928783178329468,-0.9258426427841187
1712834633294715100,22.718715087890626,0.34315356612205505,1.570458173751831,-0.8989645838737488
1712834633314715100,22.738715087890625,0.3254384696483612,1.502041220664978,-0.8262715935707092
1712834633334715100,22.758715087890625,0.3407101035118103,1.3077861070632935,-0.7358635663986206
1712834633354715100,22.778715087890625,0.39996400475502014,1.0787116289138794,-0.6326273083686829
1712834633374714600,22.798714599609376,0.48426342010498047,0.9559277296066284,-0.521449863910675
1712834633394714600,22.818714599609375,0.5398521423339844,1.0151816606521606,-0.4090506434440613
1712834633414714600,22.838714599609375,0.5771149396896362,1.1935542821884155,-0.3107013404369354
1712834633434714600,22.858714599609375,0.5917757153511047,1.3285555839538574,-0.21296289563179016
1712834633454714600,22.878714599609374,0.5783366560935974,1.287016749382019,-0.08407033234834671
1712834633474714600,22.898714599609374,0.4977024495601654,1.0096838474273682,0.04604396969079971
1712834633494714600,22.918714599609373,0.34987306594848633,0.5735260844230652,0.14989106357097626
1712834633514714600,22.938714599609376,0.15256360173225403,0.14103351533412933,0.24640776216983795
1712834633534714600,22.958714599609376,-0.053297992795705795,-0.23892466723918915,0.3355940878391266
1712834633554714600,22.978714599609376,-0.23655757308006287,-0.567570149898529,0.41806089878082275
1712834633574714600,22.998714599609375,-0.45524731278419495,-0.8351291418075562,0.5109124183654785
1712834633594714600,23.018714599609375,-0.6611089110374451,-1.0947468280792236,0.5982661247253418
1712834633614714600,23.038714599609374,-0.7808384895324707,-1.2383002042770386,0.6917285323143005
1712834633634714600,23.058714599609374,-0.7961101531982422,-1.1466704607009888,0.7650323510169983
1712834633654714600,23.078714599609373,-0.7136433124542236,-0.9047678112983704,0.7094436287879944
1712834633674714600,23.098714599609377,-0.7790058851242065,-0.5724570751190186,0.6611852645874023
1712834633694714600,23.118714599609376,-0.7105889916419983,-0.5266422033309937,0.6117051839828491
1712834633714714600,23.138714599609376,-0.6733261942863464,-0.4844925105571747,0.5261840224266052
1712834633734714600,23.158714599609375,-0.7515169382095337,-0.2920699417591095,0.3740786015987396
1712834633754714600,23.178714599609375,-0.7661777138710022,0.002367102773860097,0.15172365307807922
1712834633774715100,23.198715087890626,-0.6892086863517761,0.3236822187900543,-0.09628763794898987
1712834633794715100,23.218715087890626,-0.5419901609420776,0.6981425881385803,-0.3326924741268158
1712834633814715100,23.238715087890625,-0.3550654351711273,1.1440742015838623,-0.5281693339347839
1712834633834715100,23.258715087890625,-0.1742493063211441,1.751885175704956,-0.748080849647522
1712834633854715100,23.278715087890625,0.04138612002134323,2.2552380561828613,-0.8836929202079773
1712834633874714600,23.298714599609376,0.28267788887023926,2.5044710636138916,-1.031522274017334
1712834633894714600,23.318714599609375,0.5673410892486572,2.60587477684021,-1.1255955696105957
1712834633914714600,23.338714599609375,0.7670940160751343,2.709110975265503,-1.1408672332763672
1712834633934714600,23.358714599609375,0.8495608568191528,2.87099027633667,-1.0919979810714722
1712834633954714600,23.378714599609374,0.822682797908783,2.96872878074646,-1.0693960189819336
1712834633974714600,23.398714599609374,0.7536550164222717,3.078073501586914,-1.1579713821411133
1712834633994714600,23.418714599609373,0.6198754906654358,3.4342081546783447,-1.1775190830230713
1712834634014714600,23.438714599609376,0.3425426781177521,4.411592483520508,-1.3620004653930664
1712834634034714600,23.458714599609376,-0.5309945940971375,5.249088764190674,-1.9484310150146484
1712834634054714600,23.478714599609376,-1.6427693367004395,5.3407182693481445,-1.8195384740829468
1712834634074714600,23.498714599609375,-1.391703724861145,4.8239264488220215,-1.2037863731384277
1712834634094714600,23.518714599609375,-0.6372851729393005,2.912529230117798,-0.8452084064483643
1712834634114714600,23.538714599609374,-0.3868304193019867,0.5497023463249207,-0.05597052723169327
1712834634134714600,23.558714599609374,-0.032528575509786606,-1.9695059061050415,0.677067756652832
1712834634154714600,23.578714599609373,0.4732678532600403,-2.647566318511963,1.0863474607467651
1712834634174714600,23.598714599609377,0.9870055317878723,-2.636570692062378,1.2317334413528442
1712834634194714600,23.618714599609376,1.337031364440918,-2.229123592376709,1.5157856941223145
1712834634214714600,23.638714599609376,1.5832099914550781,-2.474691390991211,1.9440022706985474
1712834634234714600,23.658714599609375,1.6565138101577759,-3.5400404930114746,2.254321813583374
1712834634254714600,23.678714599609375,1.1323914527893066,-4.867450714111328,2.0881664752960205
1712834634274715100,23.698715087890626,-0.005650503560900688,-5.7281599044799805,1.9116264581680298
1712834634294715100,23.718715087890626,-1.1088731288909912,-6.148435115814209,1.482188105583191
1712834634314715100,23.738715087890625,-1.599397897720337,-6.660951137542725,0.7051675915718079
1712834634334715100,23.758715087890625,-1.3691017627716064,-5.817956924438477,0.21464277803897858
1712834634354715100,23.778715087890625,-0.7735081315040588,-4.372038841247559,0.7796931266784668
1712834634374714600,23.798714599609376,-0.06918048858642578,-3.4868950843811035,1.3844497203826904
1712834634394714600,23.818714599609375,0.9112582206726074,-2.8955776691436768,1.3777302503585815
1712834634414714600,23.838714599609375,1.1110111474990845,-2.150932788848877,0.5719989538192749
1712834634434714600,23.858714599609375,0.3449861407279968,-0.30917418003082275,0.000839939690195024
1712834634454714600,23.878714599609374,0.1794416606426239,1.3645966053009033,-0.2618321180343628
1712834634474714600,23.898714599609374,0.4763221740722656,2.3535873889923096,-0.31497737765312195
1712834634494714600,23.918714599609373,0.5203045010566711,2.7634780406951904,-0.3412446081638336
1712834634514714600,23.938714599609376,0.3455969989299774,2.4238369464874268,-0.34979671239852905
1712834634534714600,23.958714599609376,0.244804248213768,1.4763849973678589,-0.3687335252761841
1712834634554714600,23.978714599609376,0.20143280923366547,0.23266330361366272,-0.4237114191055298
1712834634574714600,23.998714599609375,0.1238529309630394,-0.7544949650764465,-0.4884631335735321
1712834634594714600,24.018714599609375,0.057879481464624405,-1.1985939741134644,-0.5287802219390869
1712834634614714600,24.038714599609374,0.10797043144702911,-1.0611492395401,-0.5067890882492065
1712834634634714600,24.058714599609374,0.12507465481758118,-0.5077053904533386,-0.4890739917755127
1712834634654714600,24.078714599609373,0.10980302840471268,0.08116871863603592,-0.4829653203487396
1712834634674714600,24.098714599609377,0.08659014850854874,0.48250719904899597,-0.5031238794326782
1712834634694714600,24.118714599609376,0.10308351367712021,0.6767623424530029,-0.5367214679718018
1712834634714714600,24.138714599609376,0.14767667651176453,0.74395751953125,-0.5678756237030029
1712834634734714600,24.158714599609375,0.1892155110836029,0.7506770491600037,-0.5330562591552734
1712834634754714600,24.178714599609375,0.20326541364192963,0.7036404013633728,-0.4524220824241638
1712834634774715100,24.198715087890626,0.21853704750537872,0.6040693521499634,-0.3687335252761841
1712834634794715100,24.218715087890626,0.24908030033111572,0.4055381715297699,-0.29420796036720276
1712834634814715100,24.238715087890625,0.23380866646766663,0.13003793358802795,-0.2264019250869751
1712834634834715100,24.258715087890625,0.14523321390151978,-0.084375761449337,-0.11950051039457321
1712834634854715100,24.278715087890625,0.009010262787342072,-0.14668402075767517,0.01366810966283083
1712834634874714600,24.298714599609376,-0.12171489745378494,-0.0898735523223877,0.13095423579216003
1712834634894714600,24.318714599609375,-0.23716843128204346,0.0567341111600399,0.2140319049358368
1712834634914714600,24.338714599609375,-0.31780263781547546,0.2283872365951538,0.2952769994735718
1712834634934714600,24.358714599609375,-0.36361753940582275,0.37132972478866577,0.36369389295578003
1712834634954714600,24.378714599609374,-0.4332561790943146,0.4256967306137085,0.41806089878082275
1712834634974714600,24.398714599609374,-0.49128836393356323,0.40309470891952515,0.4864778220653534
1712834634994714600,24.418714599609373,-0.46990808844566345,0.32307136058807373,0.5597816109657288
1712834635014714600,24.438714599609376,-0.42348232865333557,0.22716552019119263,0.6367506384849548
1712834635034714600,24.458714599609376,-0.42348232865333557,0.1227075532078743,0.6611852645874023
1712834635054714600,24.478714599609376,-0.5010622143745422,-0.04161519557237625,0.5921574831008911
1712834635074714600,24.498714599609375,-0.5120577812194824,-0.4142429828643799,0.405843585729599
1712834635094714600,24.518714599609375,-0.5859724879264832,-0.4728860557079315,0.31177034974098206
1712834635114714600,24.538714599609374,-0.6165157556533813,-0.28901562094688416,0.2134210467338562
1712834635134714600,24.558714599609374,-0.44425174593925476,0.137979194521904,0.02955060638487339
1712834635154714600,24.578714599609373,-0.2701551616191864,0.7268533110618591,-0.10667234659194946
1712834635174714600,24.598714599609377,-0.030695978552103043,1.2638038396835327,-0.2862667143344879
1712834635194714600,24.618714599609376,0.294895201921463,1.6901878118515015,-0.45608726143836975
1712834635214714600,24.638714599609376,0.5349652171134949,2.0047833919525146,-0.6088035702705383
1712834635234714600,24.658714599609375,0.7915286421775818,2.024941921234131,-0.748691737651825
1712834635254714600,24.678714599609375,1.0963504314422607,1.827021598815918,-0.9343947768211365
1712834635274715100,24.698715087890626,1.153160810470581,1.884442925453186,-0.8397106528282166
1712834635294715100,24.718715087890626,1.088409185409546,2.8202884197235107,-0.8861364126205444
1712834635314715100,24.738715087890625,1.2301298379898071,3.655952215194702,-1.2263883352279663
1712834635334715100,24.758715087890625,1.3303117752075195,4.213061332702637,-1.3155746459960938
1712834635354715100,24.778715087890625,1.2374602556228638,4.222835063934326,-1.3247376680374146
1712834635374714600,24.798714599609376,1.089020013809204,3.660839080810547,-1.6869807243347168
1712834635394714600,24.818714599609375,0.9943358898162842,4.003534317016602,-1.785330057144165
1712834635414714600,24.838714599609375,-0.019089538604021072,4.782998561859131,-2.3723714351654053
1712834635434714600,24.858714599609375,-0.9995282292366028,4.700531482696533,-2.204383611679077
1712834635454714600,24.878714599609374,-0.6452264189720154,3.312035083770752,-1.7065284252166748
1712834635474714600,24.898714599609374,-0.2402227520942688,1.4122440814971924,-1.0657308101654053
1712834635494714600,24.918714599609373,-0.6855435371398926,0.18012888729572296,-0.7059311270713806
1712834635514714600,24.938714599609376,-0.9042332768440247,-0.00985020212829113,-0.5043455958366394
1712834635534714600,24.958714599609376,-0.7435756921768188,-0.28290697932243347,0.2983313202857971
1712834635554714600,24.978714599609376,-0.8553640842437744,-0.1760055422782898,1.0961213111877441
