time,seconds_elapsed,z,y,x
1712834496779843000,0.107843017578125,-0.08892345428466797,-0.33556175231933594,-0.058097124099731445
1712834496801843000,0.129843017578125,-0.08973217010498047,-0.25658178329467773,-0.22954881191253662
1712834496821843000,0.149843017578125,0.017142295837402344,-0.12546634674072266,-0.6178829669952393
1712834496841843000,0.169843017578125,-0.029732704162597656,-0.25641870498657227,-0.2837480306625366
1712834496861843000,0.189843017578125,0.028433799743652344,-0.36109304428100586,-0.051788926124572754
1712834496881843000,0.209843017578125,-0.02089977264404297,-0.19321155548095703,-0.01394498348236084
1712834496901844700,0.2298447265625,-0.18560314178466797,-0.13521337509155273,-0.16829025745391846
1712834496921844700,0.2498447265625,-0.022963523864746094,-0.04790830612182617,-0.051831603050231934
1712834496941844700,0.2698447265625,0.1254568099975586,0.030979633331298828,-0.11831116676330566
1712834496961844700,0.2898447265625,0.07294654846191406,-0.19464588165283203,-0.029803037643432617
1712834496981844700,0.3098447265625,-0.03712177276611328,-0.27830934524536133,-0.04757535457611084
1712834497001844700,0.3298447265625,-0.19974899291992188,-0.2840304374694824,0.2554323673248291
1712834497021844700,0.3498447265625,-0.34796142578125,-0.4413280487060547,0.7097485065460205
1712834497041844700,0.3698447265625,-0.29262828826904297,-0.5068049430847168,1.225755214691162
1712834497061844700,0.3898447265625,-0.23332691192626953,-0.4316577911376953,1.2965567111968994
1712834497081844700,0.4098447265625,-0.4457826614379883,-0.8897533416748047,1.4428709745407104
1712834497101844700,0.4298447265625,-0.6596474647521973,-1.2183787822723389,1.408430576324463
1712834497121844700,0.4498447265625,-1.0657720565795898,-0.8481154441833496,1.3174402713775635
1712834497141844700,0.4698447265625,-1.603250503540039,-0.3256688117980957,3.221470355987549
1712834497161844700,0.4898447265625,-1.3709259033203125,1.6602187156677246,5.631433486938477
1712834497181844700,0.5098447265625,-2.4443726539611816,1.8590331077575684,3.8674349784851074
1712834497201844700,0.5298447265625,-2.251105308532715,1.5197463035583496,0.4499473571777344
1712834497221844700,0.5498447265625,-2.0820770263671875,1.2448630332946777,-0.9713747501373291
1712834497241844700,0.5698447265625,-1.8809795379638672,1.1034126281738281,-0.8101308345794678
1712834497261844700,0.5898447265625,-0.7567358016967773,0.29361963272094727,0.2727506160736084
1712834497281844700,0.6098447265625,-0.9507408142089844,0.15784311294555664,1.204901933670044
1712834497301844700,0.6298447265625,-1.1948533058166504,0.7687778472900391,1.8064228296279907
1712834497321844700,0.6498447265625,-1.1274843215942383,1.3787221908569336,2.080810070037842
1712834497341844700,0.6698447265625,-1.4180879592895508,1.7201671600341797,2.0952301025390625
1712834497361844700,0.6898447265625,-1.2220592498779297,1.4803438186645508,1.9515409469604492
1712834497381844700,0.7098447265625,-1.5491023063659668,1.8081965446472168,1.1444710493087769
1712834497401845000,0.729844970703125,-2.2679808139801025,2.04697322845459,0.1727285385131836
1712834497421845000,0.749844970703125,-2.6707189083099365,2.442812919616699,-0.800173282623291
1712834497441845000,0.769844970703125,-2.2016029357910156,2.5269699096679688,-1.5952589511871338
1712834497461845000,0.789844970703125,-1.6565840244293213,2.486048698425293,-1.7695708274841309
1712834497481845000,0.809844970703125,-1.6488232612609863,2.2733421325683594,-0.8154325485229492
1712834497501844700,0.8298447265625,-1.5036544799804688,2.1231164932250977,-1.1641912460327148
1712834497521844700,0.8498447265625,-1.5380330085754395,2.461483955383301,-1.5712710618972778
1712834497541844700,0.8698447265625,-1.0617403984069824,1.2668676376342773,-2.1559865474700928
1712834497561844700,0.8898447265625,0.26494646072387695,2.5498476028442383,-1.2302712202072144
1712834497581844700,0.9098447265625,0.323061466217041,2.5099782943725586,-1.5655055046081543
1712834497601844700,0.9298447265625,0.3552737236022949,2.524423599243164,-1.056949257850647
1712834497621844700,0.9498447265625,0.662773609161377,2.0584592819213867,-0.5848731994628906
1712834497641844700,0.9698447265625,0.46102285385131836,0.8995790481567383,-1.0323832035064697
1712834497661844700,0.9898447265625,0.7797269821166992,-0.3048419952392578,-1.634172797203064
1712834497681844700,1.0098447265625,1.6046152114868164,-0.7168025970458984,-2.597353458404541
1712834497701844700,1.0298447265625,1.2083253860473633,-1.4077019691467285,-3.5357797145843506
1712834497721844700,1.0498447265625,2.3975796699523926,-1.8378229141235352,-3.854109764099121
1712834497741844700,1.0698447265625,2.901191234588623,-0.1269664764404297,-1.9567773342132568
1712834497761844700,1.0898447265625,1.9301886558532715,0.9856243133544922,-0.9837392568588257
1712834497781844700,1.1098447265625,2.3274688720703125,-1.002556324005127,-3.5683999061584473
1712834497801844700,1.1298447265625,1.6443243026733398,-1.712331771850586,-3.542191505432129
1712834497821844700,1.1498447265625,0.9506902694702148,-2.103771686553955,-3.312020778656006
1712834497841844700,1.1698447265625,0.7981810569763184,-2.0027079582214355,-3.355923891067505
1712834497861844700,1.1898447265625,0.21632814407348633,-2.0475916862487793,-3.338473320007324
1712834497881844700,1.2098447265625,-0.08835840225219727,-3.501922607421875,-2.6730563640594482
1712834497901845000,1.229844970703125,-0.23428821563720703,-3.3879637718200684,-2.736672878265381
1712834497921845000,1.249844970703125,-0.4770689010620117,-3.2916393280029297,-2.3333094120025635
1712834497941845000,1.269844970703125,-1.1599946022033691,-3.798816680908203,-2.137777090072632
1712834497961845000,1.289844970703125,-1.334174633026123,-3.16951847076416,-2.1175343990325928
1712834497981845000,1.309844970703125,-1.8695101737976074,-1.1761722564697266,-1.8940560817718506
1712834498001844700,1.3298447265625,-2.9019522666931152,0.19466638565063477,-1.5555212497711182
1712834498021844700,1.3498447265625,-3.6921193599700928,-0.07988309860229492,-1.3348140716552734
1712834498041844700,1.3698447265625,-4.181126594543457,0.090728759765625,-1.1219370365142822
1712834498061844700,1.3898447265625,-5.041737079620361,-0.0796051025390625,-1.4964817762374878
1712834498081844700,1.4098447265625,-5.282264232635498,-0.10517072677612305,-1.4672133922576904
1712834498101844700,1.4298447265625,-5.003046989440918,0.4498715400695801,-0.7393738031387329
1712834498121844700,1.4498447265625,-5.361673355102539,0.7495026588439941,0.7154464721679688
1712834498141844700,1.4698447265625,-5.415060520172119,0.21027612686157227,1.2412704229354858
1712834498161844700,1.4898447265625,-5.306866645812988,0.11950492858886719,1.2086970806121826
1712834498181844700,1.5098447265625,-6.303885459899902,0.10598087310791016,0.5279330015182495
1712834498201844700,1.5298447265625,-6.987913608551025,-0.49265146255493164,1.7067700624465942
1712834498221844700,1.5498447265625,-6.779873847961426,-0.6644611358642578,1.7847630977630615
1712834498241844700,1.5698447265625,-6.419188022613525,-0.7541942596435547,3.123723268508911
1712834498261844700,1.5898447265625,-4.635415077209473,2.4275636672973633,1.5873661041259766
1712834498281844700,1.6098447265625,-4.283358573913574,2.1886730194091797,1.840259075164795
1712834498301844700,1.6298447265625,-3.6028552055358887,4.146562576293945,-0.039278626441955566
1712834498321844700,1.6498447265625,-1.0801286697387695,7.656279563903809,-2.92203688621521
1712834498341844700,1.6698447265625,-0.5061793327331543,8.465505599975586,-5.346371650695801
1712834498361844700,1.6898447265625,0.06688737869262695,10.97203540802002,-6.422685623168945
1712834498381844700,1.7098447265625,-0.19028997421264648,10.234563827514648,-0.8953902721405029
1712834498401845000,1.729844970703125,-1.1975094079971313,7.24980354309082,9.891595840454102
1712834498421845000,1.749844970703125,0.933160662651062,3.5621776580810547,18.207874298095703
1712834498441845000,1.769844970703125,1.397737979888916,0.6804933547973633,21.389509201049805
1712834498461845000,1.789844970703125,1.852351188659668,0.6450395584106445,21.32670021057129
1712834498481845000,1.809844970703125,1.4516828060150146,4.1484222412109375,3.8015735149383545
1712834498501844700,1.8298447265625,1.7495795488357544,4.151476860046387,3.6748859882354736
1712834498521844700,1.8498447265625,5.328876495361328,3.2829771041870117,-2.324352979660034
1712834498541844700,1.8698447265625,5.531867027282715,1.7167339324951172,-3.5662522315979004
1712834498561844700,1.8898447265625,5.513638973236084,1.7420711517333984,-3.8660824298858643
1712834498581844700,1.9098447265625,2.531036615371704,0.5083332061767578,-1.8012943267822266
1712834498601844700,1.9298447265625,1.5094736814498901,0.33446502685546875,-0.27813220024108887
1712834498621844700,1.9498447265625,0.5383499264717102,-0.23134231567382812,0.2850933074951172
1712834498641844700,1.9698447265625,0.22476151585578918,-0.8062963485717773,0.4097166061401367
1712834498661844700,1.9898447265625,0.07075551152229309,-0.7491321563720703,0.6892318725585938
1712834498681844700,2.0098447265625,-0.038491785526275635,-0.7097434997558594,0.5291156768798828
1712834498701844700,2.0298447265625,-0.3919561207294464,-0.5319919586181641,0.6591939926147461
1712834498721844700,2.0498447265625,-0.7269934415817261,-0.8309144973754883,0.3887784481048584
1712834498741844700,2.0698447265625,-0.6111420392990112,-0.6667404174804688,0.6223125457763672
1712834498761844700,2.0898447265625,-0.21486788988113403,-0.7002201080322266,0.23872065544128418
1712834498781844700,2.1098447265625,0.5194187164306641,-0.9100351333618164,0.187269926071167
1712834498801844700,2.1298447265625,0.6567525267601013,-1.0588750839233398,0.3188669681549072
1712834498821844700,2.1498447265625,0.6467047333717346,-1.216456413269043,0.048621416091918945
1712834498841844700,2.1698447265625,0.43377137184143066,-1.703181266784668,-0.15503382682800293
1712834498861844700,2.1898447265625,0.6636447906494141,-1.751546859741211,-0.28329670429229736
1712834498881844700,2.2098447265625,0.3943980932235718,-1.1500158309936523,-0.5543297529220581
1712834498901845000,2.229844970703125,0.21491128206253052,0.14235210418701172,-0.46280139684677124
1712834498921845000,2.249844970703125,-0.17638689279556274,1.3256940841674805,-0.6203817129135132
1712834498941845000,2.269844970703125,0.8931368589401245,1.9954109191894531,-0.27887335419654846
1712834498961845000,2.289844970703125,0.490206241607666,2.16546630859375,-0.36613690853118896
1712834498981845000,2.309844970703125,0.10591959953308105,1.3355436325073242,-1.3320631980895996
1712834499001844700,2.3298447265625,0.46395814418792725,1.0489788055419922,-2.168959379196167
1712834499021844700,2.3498447265625,-0.3106423616409302,1.1065950393676758,-2.4641880989074707
1712834499041844700,2.3698447265625,-0.4006425142288208,1.0228757858276367,-2.1507346630096436
1712834499061844700,2.3898447265625,-0.3671359419822693,1.051243782043457,-1.8771305084228516
1712834499081844700,2.4098447265625,1.628501296043396,0.7930507659912109,5.227120399475098
1712834499101844700,2.4298447265625,-0.0035147666931152344,0.4555082321166992,6.863779544830322
1712834499121844700,2.4498447265625,0.4808124303817749,-0.6322145462036133,5.784470558166504
1712834499141844700,2.4698447265625,-0.5728117227554321,-1.2931756973266602,3.0106940269470215
1712834499161844700,2.4898447265625,-0.5304904580116272,-1.3099241256713867,2.9182345867156982
1712834499181844700,2.5098447265625,-0.6004890203475952,-1.187509536743164,2.5001766681671143
1712834499201844700,2.5298447265625,10.458340644836426,1.3116207122802734,2.8745005130767822
1712834499221844700,2.5498447265625,6.614566802978516,3.241060256958008,-3.6929736137390137
1712834499241844700,2.5698447265625,6.475022315979004,3.2442989349365234,-3.956968307495117
1712834499261844700,2.5898447265625,-9.973388671875,-2.083237648010254,-5.4643378257751465
1712834499281844700,2.6098447265625,-10.185980796813965,-2.0484619140625,-5.635572910308838
1712834499301844700,2.6298447265625,-0.2796560525894165,-1.554957389831543,3.2651243209838867
1712834499321844700,2.6498447265625,-0.682772159576416,-1.4565858840942383,3.0421552658081055
1712834499341844700,2.6698447265625,4.568134307861328,-0.44810962677001953,17.673954010009766
1712834499361844700,2.6898447265625,0.4964907169342041,9.267481803894043,25.86740493774414
1712834499381844700,2.7098447265625,1.3559162616729736,16.127986907958984,10.8317232131958
1712834499401845000,2.729844970703125,-2.6033945083618164,9.919533729553223,0.05398762226104736
1712834499421845000,2.749844970703125,-8.805742263793945,10.101661682128906,-4.711234092712402
1712834499441845000,2.769844970703125,-2.4083828926086426,11.339018821716309,-6.242337226867676
1712834499461845000,2.789844970703125,-2.228170871734619,0.1989593505859375,-2.8461084365844727
1712834499481845000,2.809844970703125,-11.921632766723633,-2.7936325073242188,-7.428377151489258
1712834499501844700,2.8298447265625,-10.406293869018555,-2.429210662841797,-12.463842391967773
1712834499521844700,2.8498447265625,-13.181102752685547,-2.4708633422851562,-8.704289436340332
1712834499541844700,2.8698447265625,-9.095314025878906,-3.7901835441589355,-6.421225547790527
1712834499561844700,2.8898447265625,-6.016622543334961,-4.839672088623047,-3.654256820678711
1712834499581844700,2.9098447265625,-8.003917694091797,-4.201660633087158,-0.9419605731964111
1712834499601844700,2.9298447265625,-12.865751266479492,-5.100156784057617,-2.489513397216797
1712834499621844700,2.9498447265625,-9.782607078552246,-4.661414623260498,-6.902732849121094
1712834499641844700,2.9698447265625,-3.5455784797668457,-1.8924694061279297,-9.905580520629883
1712834499661844700,2.9898447265625,-2.355522632598877,4.039349555969238,-11.066288948059082
1712834499681844700,3.0098447265625,-2.714404821395874,8.297388076782227,-12.267768859863281
1712834499701844700,3.0298447265625,-4.701441764831543,8.555438041687012,-11.003413200378418
1712834499721844700,3.0498447265625,-7.50796365737915,8.871077537536621,0.49201107025146484
1712834499741844700,3.0698447265625,-12.82905101776123,8.16771125793457,21.834218978881836
1712834499761844700,3.0898447265625,-2.6134097576141357,5.663510322570801,40.51061248779297
1712834499781844700,3.1098447265625,4.371852397918701,-1.0447320938110352,19.955759048461914
1712834499801844700,3.1298447265625,5.470082759857178,2.464310646057129,5.8119611740112305
1712834499821844700,3.1498447265625,1.8368735313415527,7.199546813964844,0.09969455003738403
1712834499841844700,3.1698447265625,2.879685878753662,2.854752540588379,-5.781157970428467
1712834499861844700,3.1898447265625,3.390826463699341,0.197265625,-6.135496616363525
1712834499881844700,3.2098447265625,1.4432703256607056,-0.17594051361083984,-3.4087014198303223
1712834499901845000,3.229844970703125,0.27005553245544434,-0.7547273635864258,-1.6041513681411743
1712834499921845000,3.249844970703125,0.8369768857955933,-1.3402299880981445,-1.4603626728057861
1712834499941845000,3.269844970703125,1.7087047100067139,-2.008335590362549,-1.4080512523651123
1712834499961845000,3.289844970703125,1.4894720315933228,-2.888467788696289,-0.8341490030288696
1712834499981845000,3.309844970703125,0.1416826844215393,-3.885770320892334,-0.4182840585708618
1712834500001844700,3.3298447265625,-0.6126391887664795,-4.032017707824707,0.16315793991088867
1712834500021844700,3.3498447265625,-0.872441291809082,-3.4681038856506348,0.705845832824707
1712834500041844700,3.3698447265625,-0.5015931725502014,-2.616964340209961,0.8259944915771484
1712834500061844700,3.3898447265625,0.12889665365219116,-1.75502347946167,1.2397737503051758
1712834500081844700,3.4098447265625,0.8960705995559692,-1.2842731475830078,1.8183269500732422
1712834500101844700,3.4298447265625,1.4516510963439941,-1.2957191467285156,2.0592870712280273
1712834500121844700,3.4498447265625,1.7582859992980957,-1.8533577919006348,1.5140001773834229
1712834500141844700,3.4698447265625,1.200730800628662,-1.7731590270996094,0.7816596031188965
1712834500161844700,3.4898447265625,0.203627347946167,-1.6176528930664062,0.28558313846588135
1712834500181844700,3.5098447265625,0.22809600830078125,-1.2517423629760742,0.30269283056259155
1712834500201844700,3.5298447265625,0.8651059865951538,-1.1010589599609375,-0.16068363189697266
1712834500221844700,3.5498447265625,1.0652661323547363,-0.4495115280151367,-0.4723427891731262
1712834500241844700,3.5698447265625,0.6545135378837585,1.5784778594970703,-0.606613278388977
1712834500261844700,3.5898447265625,-1.978728175163269,4.17755126953125,0.9382272362709045
1712834500281844700,3.6098447265625,-1.890610933303833,6.169276237487793,5.711688995361328
1712834500301844700,3.6298447265625,1.5378698110580444,5.837494850158691,11.084990501403809
1712834500321844700,3.6498447265625,5.279080390930176,5.021087646484375,14.200370788574219
1712834500341844700,3.6698447265625,3.1063859462738037,4.879369735717773,13.579174995422363
1712834500361844700,3.6898447265625,-1.6996370553970337,7.554014205932617,8.954699516296387
1712834500381844700,3.7098447265625,-6.180522441864014,10.433692932128906,2.78926682472229
1712834500401845000,3.729844970703125,-7.409094333648682,8.477293014526367,-1.8986396789550781
1712834500421845000,3.749844970703125,-7.572004318237305,4.198455810546875,-2.736198902130127
1712834500441845000,3.769844970703125,-5.015224933624268,1.8565988540649414,-2.9719326496124268
1712834500461845000,3.789844970703125,2.4749226570129395,-0.37872982025146484,-1.1273038387298584
1712834500481845000,3.809844970703125,1.9878084659576416,-0.26465702056884766,-1.051098108291626
1712834500501844700,3.8298447265625,1.2197437286376953,-3.439720630645752,-4.397780895233154
1712834500521844700,3.8498447265625,-4.599250793457031,-4.1904072761535645,-9.821226119995117
1712834500541844700,3.8698447265625,-8.907551765441895,-6.081037521362305,-9.59645938873291
1712834500561844700,3.8898447265625,-7.047574996948242,-4.044654846191406,-3.099219799041748
1712834500581844700,3.9098447265625,-5.214367389678955,-4.142478942871094,0.3680092394351959
1712834500601844700,3.9298447265625,-5.149626731872559,-4.605689525604248,-0.6536245346069336
1712834500621844700,3.9498447265625,-7.037263870239258,-4.14992618560791,-1.7697744369506836
1712834500641844700,3.9698447265625,-8.075360298156738,-3.0826244354248047,-1.4469692707061768
1712834500661844700,3.9898447265625,-7.040660858154297,-2.484130859375,-1.5694971084594727
1712834500681844700,4.0098447265625,-5.828126907348633,-2.1151857376098633,-1.973345160484314
1712834500701844700,4.0298447265625,-5.5271382331848145,-0.45006752014160156,-2.818518877029419
1712834500721844700,4.0498447265625,-5.069319248199463,1.514129638671875,-3.710188627243042
1712834500741844700,4.0698447265625,-3.219836711883545,3.9681882858276367,-4.838328838348389
1712834500761844700,4.0898447265625,-2.5385446548461914,6.897043228149414,-6.058498382568359
1712834500781844700,4.1098447265625,-5.788210868835449,9.468761444091797,-6.259378433227539
1712834500801844700,4.1298447265625,-5.473522186279297,9.440335273742676,-5.879141330718994
1712834500821844700,4.1498447265625,-5.12700080871582,4.134389877319336,16.298967361450195
1712834500841844700,4.1698447265625,-4.047573566436768,2.365110397338867,28.428621292114258
1712834500861844700,4.1898447265625,-3.7383391857147217,2.350844383239746,28.374191284179688
1712834500881844700,4.2098447265625,3.414989948272705,0.9128208160400391,10.71723747253418
1712834500901845000,4.229844970703125,8.404714584350586,2.0290298461914062,9.871016502380371
1712834500921845000,4.249844970703125,8.473067283630371,2.0243024826049805,9.69886589050293
1712834500941845000,4.269844970703125,4.074346542358398,1.0084848403930664,-2.6709768772125244
1712834500961845000,4.289844970703125,-2.3495383262634277,4.61419677734375,-7.014056205749512
1712834500981845000,4.309844970703125,-4.036692142486572,1.7350635528564453,-7.855013370513916
1712834501001844700,4.3298447265625,-4.140817642211914,1.752070426940918,-8.130552291870117
1712834501021844700,4.3498447265625,-0.10981327295303345,0.5874099731445312,-1.15389084815979
1712834501041844700,4.3698447265625,0.0813908725976944,0.9693775177001953,2.102403163909912
1712834501061844700,4.3898447265625,1.2623517513275146,-0.2774200439453125,3.2898080348968506
1712834501081844700,4.4098447265625,2.139662504196167,-1.5081520080566406,3.5735108852386475
1712834501101844700,4.4298447265625,1.655815839767456,-1.667612075805664,3.621622323989868
1712834501121844700,4.4498447265625,0.5170897245407104,-1.2378759384155273,2.734463691711426
1712834501141844700,4.4698447265625,-0.6297376155853271,-1.1723451614379883,1.2849175930023193
1712834501161844700,4.4898447265625,-1.1067878007888794,-1.2133970260620117,-0.15727531909942627
1712834501181844700,4.5098447265625,-1.089292049407959,-1.1435279846191406,-0.8217156529426575
1712834501201844700,4.5298447265625,-1.1265825033187866,-1.145421028137207,-0.8021990656852722
1712834501221844700,4.5498447265625,-0.9527198076248169,-1.249197006225586,-0.3572530746459961
1712834501241844700,4.5698447265625,-0.001303941011428833,-1.551529884338379,0.7260464429855347
1712834501261844700,4.5898447265625,0.40347254276275635,-1.5566205978393555,0.8560913801193237
1712834501281844700,4.6098447265625,0.37928852438926697,-1.5324440002441406,0.6607754230499268
1712834501301844700,4.6298447265625,-0.008420616388320923,-1.4822721481323242,0.31528496742248535
1712834501321844700,4.6498447265625,-0.05034342408180237,-1.1717376708984375,-0.16614538431167603
1712834501341844700,4.6698447265625,-0.29200273752212524,-0.7565546035766602,-0.7080857157707214
1712834501361844700,4.6898447265625,-0.589938223361969,-0.4675264358520508,-1.2623753547668457
1712834501381844700,4.7098447265625,-0.6579468846321106,-0.4066648483276367,-1.0473705530166626
1712834501401845000,4.729844970703125,-0.6185497045516968,-0.8913183212280273,-0.1407528817653656
1712834501421845000,4.749844970703125,-0.6250795125961304,-0.8942642211914062,0.048618197441101074
1712834501441845000,4.769844970703125,0.21219709515571594,1.8754854202270508,2.2161359786987305
1712834501461845000,4.789844970703125,1.8045501708984375,4.50037956237793,4.663187026977539
1712834501481811500,4.8098115234375,3.5836334228515625,5.824763298034668,7.019829273223877
1712834501501778000,4.82977783203125,3.3567590713500977,5.842868804931641,6.976577281951904
1712834501521744600,4.84974462890625,2.8861894607543945,5.003746032714844,9.359987258911133
1712834501541711400,4.86971142578125,1.0524892807006836,5.576373100280762,6.3389573097229
1712834501561678000,4.889677978515625,-1.0333032608032227,5.881963729858398,1.621625304222107
1712834501581644500,4.90964453125,-2.9710843563079834,6.3881940841674805,-2.934889078140259
1712834501601611300,4.929611328125,-3.3694276809692383,6.495626449584961,-2.983180284500122
1712834501621578200,4.949578125,-4.604747772216797,1.7787294387817383,-6.53458309173584
1712834501641545000,4.969544921875,-6.064472198486328,0.10548973083496094,-5.727413654327393
1712834501661511700,4.98951171875,-2.8224265575408936,-1.0630178451538086,-3.561279058456421
1712834501681478100,5.00947802734375,2.5672988891601562,0.33359241485595703,2.960435390472412
1712834501701444900,5.02944482421875,-1.9601950645446777,-1.8215794563293457,1.0882316827774048
1712834501721411600,5.04941162109375,-2.2619266510009766,-1.6578879356384277,1.2828733921051025
1712834501741378300,5.06937841796875,-9.457326889038086,-2.6984996795654297,-5.4383368492126465
1712834501761345300,5.08934521484375,-9.48920726776123,-2.6732358932495117,-5.301710605621338
1712834501781312000,5.10931201171875,-7.197339057922363,-3.797647476196289,2.2319912910461426
1712834501801278500,5.129278564453125,-7.198486328125,-3.802323341369629,2.079242706298828
1712834501821245200,5.1492451171875,-6.151420593261719,-5.084475040435791,-1.0727181434631348
1712834501841212000,5.1692119140625,-5.877630233764648,-5.2364325523376465,-1.0418803691864014
1712834501861178600,5.1891787109375,-6.767672538757324,-3.864212989807129,-2.2762293815612793
1712834501881145000,5.20914501953125,-5.943116664886475,0.42863941192626953,-6.2348713874816895
1712834501901111800,5.22911181640625,-3.481017589569092,1.5019950866699219,-7.751115322113037
1712834501921078500,5.24907861328125,-1.7007803916931152,5.5674238204956055,-8.011648178100586
1712834501941045200,5.269045166015625,-3.0815391540527344,8.56667423248291,-8.67429256439209
1712834501961012000,5.289011962890625,-3.4158167839050293,5.000165939331055,-1.0744421482086182
1712834501980978400,5.308978515625,-3.027815341949463,4.949925422668457,-1.0034335851669312
1712834502000945000,5.32894482421875,-2.616466760635376,4.437647819519043,12.495635986328125
1712834502020911600,5.34891162109375,-2.313270092010498,0.3519554138183594,21.741310119628906
1712834502040878300,5.36887841796875,-1.8851752281188965,0.3540477752685547,21.814340591430664
1712834502060845000,5.388844970703125,7.684716701507568,4.273525238037109,5.532047748565674
1712834502080845000,5.408844970703125,8.230541229248047,1.5428943634033203,0.3914344310760498
1712834502100845000,5.428844970703125,8.252429962158203,1.5473852157592773,0.22230565547943115
1712834502120845300,5.44884521484375,4.317719459533691,-0.5057430267333984,-2.8590190410614014
1712834502140845300,5.46884521484375,-1.2281718254089355,2.5927906036376953,-3.078411340713501
1712834502160845300,5.48884521484375,-1.3299810886383057,2.6000404357910156,-3.2275848388671875
1712834502180845300,5.50884521484375,1.9081848859786987,-0.0777120590209961,0.6102570295333862
1712834502200845300,5.52884521484375,1.752232313156128,-0.07050800323486328,0.5039324760437012
1712834502220845000,5.548844970703125,0.46643882989883423,0.6039810180664062,2.6605961322784424
1712834502240845000,5.568844970703125,-0.698619544506073,0.11751747131347656,1.0765751600265503
1712834502260845300,5.58884521484375,-1.075107455253601,-0.37299060821533203,1.3401676416397095
1712834502280845300,5.60884521484375,-1.1508835554122925,-0.3749876022338867,1.3595783710479736
1712834502300845300,5.62884521484375,0.17270693182945251,-1.660064697265625,1.7589958906173706
1712834502320845300,5.64884521484375,0.09983956813812256,-1.6653356552124023,1.8154516220092773
1712834502340845300,5.66884521484375,-0.11247019469738007,-1.5543832778930664,1.218575119972229
1712834502360845000,5.688844970703125,-0.43982994556427,-1.2509517669677734,0.7809511423110962
1712834502380845000,5.708844970703125,-0.4375266432762146,-1.2601213455200195,0.8699012994766235
1712834502400845000,5.728844970703125,-0.7349236011505127,-1.0761051177978516,0.2672840356826782
1712834502420845000,5.748844970703125,-0.43354251980781555,-1.2800931930541992,-0.09902942180633545
1712834502440845000,5.768844970703125,-0.18660086393356323,-1.663792610168457,-0.7189450263977051
1712834502460845000,5.788844970703125,0.23331031203269958,-1.4619226455688477,-1.0359644889831543
1712834502480845000,5.808844970703125,-0.16942469775676727,0.2899036407470703,-1.0572352409362793
1712834502500845000,5.828844970703125,-1.1220207214355469,4.075417518615723,-0.26642128825187683
1712834502520845000,5.848844970703125,-1.1209419965744019,4.076394081115723,-0.09325490891933441
1712834502540845000,5.868844970703125,0.9389282464981079,6.116013526916504,7.594710350036621
1712834502560845000,5.888844970703125,0.7426180243492126,6.124537467956543,7.563370704650879
1712834502580845000,5.908844970703125,3.5169854164123535,3.6364059448242188,13.15538215637207
1712834502600845000,5.928844970703125,3.232837438583374,3.664642333984375,12.98477840423584
1712834502620845300,5.94884521484375,-0.8889020681381226,4.873363494873047,8.564126014709473
1712834502640845300,5.96884521484375,-10.780179977416992,6.706118583679199,-5.685265064239502
1712834502660845300,5.98884521484375,-11.153291702270508,6.78398323059082,-5.770953178405762
1712834502680845300,6.00884521484375,6.43032169342041,-0.48204898834228516,-1.3273510932922363
1712834502700845300,6.02884521484375,1.6202483177185059,-3.9492573738098145,-1.8226139545440674
1712834502720845000,6.048844970703125,-6.328256130218506,-1.7998628616333008,-7.636740684509277
1712834502740845000,6.068844970703125,-6.521938323974609,-1.7191104888916016,-7.373147487640381
1712834502760845300,6.08884521484375,-10.816543579101562,-6.242630958557129,-4.182945728302002
1712834502780845300,6.10884521484375,-7.282868385314941,-7.426854133605957,2.0225462913513184
1712834502800845300,6.12884521484375,-7.400598526000977,-7.374581336975098,1.9681905508041382
1712834502820845300,6.14884521484375,-7.346495628356934,-6.7276611328125,-0.14011341333389282
1712834502840845300,6.16884521484375,-8.582509994506836,-4.186113357543945,-2.2855827808380127
1712834502860845000,6.188844970703125,-7.927804470062256,-3.0546622276306152,-3.2608630657196045
1712834502880845000,6.208844970703125,-6.8797454833984375,-3.2566990852355957,-3.1347265243530273
1712834502900845000,6.228844970703125,-6.460926055908203,-3.4017462730407715,-3.2787065505981445
1712834502920845000,6.248844970703125,-5.406586170196533,0.6683588027954102,-4.070217132568359
1712834502940845000,6.268844970703125,-4.859167098999023,0.5471973419189453,-4.212970733642578
1712834502960845000,6.288844970703125,-1.2862247228622437,7.846217155456543,-6.877424240112305
1712834502980845000,6.308844970703125,-0.35162466764450073,10.377660751342773,-5.885777950286865
1712834503000845000,6.328844970703125,-2.8449459075927734,7.567079544067383,3.2119905948638916
1712834503020845000,6.348844970703125,-4.6508331298828125,3.3470497131347656,12.58258056640625
1712834503040845000,6.368844970703125,-4.385769367218018,3.347076416015625,12.639641761779785
1712834503060845000,6.388844970703125,-4.216869354248047,3.7495689392089844,20.63443946838379
1712834503080845000,6.408844970703125,4.07009744644165,1.1688156127929688,8.383796691894531
1712834503100845000,6.428844970703125,9.781865119934082,2.159189224243164,10.018086433410645
1712834503120845300,6.44884521484375,9.711129188537598,-0.4264545440673828,2.5032267570495605
1712834503140845300,6.46884521484375,3.3837289810180664,1.1928339004516602,-2.719749927520752
1712834503160845300,6.48884521484375,-3.097079038619995,7.693567276000977,-5.918163776397705
1712834503180845300,6.50884521484375,-1.8242981433868408,1.247481346130371,-6.903692722320557
1712834503200845300,6.52884521484375,-1.959106206893921,1.227320671081543,-7.012807846069336
1712834503220845000,6.548844970703125,1.295055866241455,2.427947998046875,1.484617829322815
1712834503240845000,6.568844970703125,1.0535458326339722,1.1073627471923828,3.831868886947632
1712834503260845300,6.58884521484375,0.9090036153793335,1.092942237854004,3.8151867389678955
1712834503280845300,6.60884521484375,1.159661054611206,-0.45964527130126953,4.685257434844971
1712834503300845300,6.62884521484375,0.4503413736820221,-0.25464916229248047,4.719937324523926
1712834503320845300,6.64884521484375,-0.22131168842315674,-0.48306751251220703,4.243772983551025
1712834503340845300,6.66884521484375,-0.14592111110687256,-0.969782829284668,3.297785520553589
1712834503360845000,6.688844970703125,-0.15580138564109802,-1.0246105194091797,1.9871121644973755
1712834503380845000,6.708844970703125,-0.46108561754226685,-0.9443979263305664,-0.16586656868457794
1712834503400845000,6.728844970703125,-0.4896605908870697,-1.124246597290039,-0.1934788078069687
1712834503420845000,6.748844970703125,-0.5363355278968811,-1.1265811920166016,-0.15130291879177094
1712834503440845000,6.768844970703125,0.35219109058380127,-2.0336761474609375,-0.13562047481536865
1712834503460845000,6.788844970703125,-0.024728924036026,-2.669687271118164,-0.057784371078014374
1712834503480845000,6.808844970703125,-0.05048574507236481,-2.670461654663086,0.051528528332710266
1712834503500845000,6.828844970703125,-0.9136943221092224,-0.18465805053710938,0.252552330493927
1712834503520845000,6.848844970703125,-2.1124165058135986,5.542372703552246,1.8183830976486206
1712834503540845000,6.868844970703125,-2.053368330001831,7.949108123779297,5.235273838043213
1712834503560845000,6.888844970703125,-2.1919634342193604,7.950203895568848,5.2555341720581055
1712834503580845000,6.908844970703125,3.514299154281616,5.111566543579102,10.442655563354492
1712834503600845000,6.928844970703125,-0.2854391932487488,5.6587066650390625,10.705915451049805
1712834503620845300,6.94884521484375,-3.6353981494903564,6.785265922546387,2.4028103351593018
1712834503640845300,6.96884521484375,-6.588111400604248,6.9885406494140625,-5.277503967285156
1712834503660845300,6.98884521484375,-6.966506481170654,7.0458574295043945,-5.386075973510742
1712834503680845300,7.00884521484375,4.759085655212402,0.5406293869018555,-5.106104850769043
1712834503700845300,7.02884521484375,4.168111801147461,0.677006721496582,-4.96000337600708
1712834503720845000,7.048844970703125,-3.7174808979034424,-5.04665994644165,-7.660190582275391
1712834503740845000,7.068844970703125,-10.29032039642334,-2.9623007774353027,-10.486852645874023
1712834503760845300,7.08884521484375,-11.980567932128906,-5.323524475097656,-7.196080207824707
1712834503780845300,7.10884521484375,-9.307127952575684,-6.452250003814697,1.391141653060913
1712834503800845300,7.12884521484375,-7.384263038635254,-5.249739646911621,4.423847198486328
1712834503820845300,7.14884521484375,-7.471175193786621,-5.204856872558594,4.480090141296387
1712834503840845300,7.16884521484375,-8.858440399169922,-3.4923110008239746,-0.6966679692268372
1712834503860845000,7.188844970703125,-6.815613746643066,-1.447740077972412,-0.3788325786590576
1712834503880845000,7.208844970703125,-4.356546401977539,-1.8285861015319824,-1.2459869384765625
1712834503900845000,7.228844970703125,-4.039739608764648,-1.9563450813293457,-1.3192555904388428
1712834503920845000,7.248844970703125,-6.572940349578857,-0.25152015686035156,-3.8757381439208984
1712834503940845000,7.268844970703125,-6.022858619689941,-0.4169282913208008,-4.093907356262207
1712834503960845000,7.288844970703125,-5.570511817932129,2.753767967224121,-5.370024681091309
1712834503980845000,7.308844970703125,-2.99288272857666,6.707016944885254,-5.1551666259765625
1712834504000845000,7.328844970703125,0.2783573269844055,10.630512237548828,-3.1480255126953125
1712834504020845000,7.348844970703125,1.538485050201416,8.01015853881836,2.588132619857788
1712834504040845000,7.368844970703125,0.3896355926990509,-1.7931408882141113,16.850147247314453
1712834504060845000,7.388844970703125,0.7428604364395142,-1.7880549430847168,16.92171859741211
1712834504080845000,7.408844970703125,0.5807300806045532,3.0995121002197266,5.365817546844482
1712834504100845000,7.428844970703125,4.509040355682373,2.9535694122314453,1.673978328704834
1712834504120845300,7.44884521484375,9.257184982299805,-0.3003883361816406,-0.7358157634735107
1712834504140845300,7.46884521484375,9.27816104888916,-0.30767250061035156,-0.9117045402526855
1712834504160845300,7.48884521484375,6.550538063049316,-1.2483806610107422,-0.7956357598304749
1712834504180845300,7.50884521484375,2.440427541732788,2.5730323791503906,-0.6003121733665466
1712834504200845300,7.52884521484375,-1.2792127132415771,1.1951446533203125,-3.3000845909118652
1712834504220844800,7.5488447265625,-1.426461935043335,1.1861019134521484,-3.3936705589294434
1712834504240844800,7.5688447265625,-0.011205434799194336,0.20831584930419922,0.6863327622413635
1712834504260845300,7.58884521484375,-0.12969371676445007,0.20172691345214844,0.6890814900398254
1712834504280845300,7.60884521484375,1.2368483543395996,-0.9927186965942383,3.6035165786743164
1712834504300845300,7.62884521484375,1.17587149143219,-0.9956150054931641,3.6221201419830322
1712834504320845300,7.64884521484375,-0.33345818519592285,-0.6005678176879883,2.6025266647338867
1712834504340845300,7.66884521484375,-0.3410061001777649,-0.6027688980102539,2.671701669692993
1712834504360844800,7.6888447265625,-0.11698257923126221,-0.34389209747314453,2.27705454826355
1712834504380844800,7.7088447265625,0.6023247241973877,-1.20770263671875,1.5586315393447876
1712834504400844800,7.7288447265625,0.5783321261405945,-1.208745002746582,1.6530423164367676
1712834504420844800,7.7488447265625,0.9567399024963379,-1.919365406036377,0.6078487038612366
1712834504440844800,7.7688447265625,-0.016891658306121826,-2.206725597381592,-1.6000045537948608
1712834504460844800,7.7888447265625,-0.964722752571106,-1.7949504852294922,-1.2110531330108643
1712834504480844800,7.8088447265625,-0.9668970108032227,-1.7882499694824219,-1.0615321397781372
1712834504500844800,7.8288447265625,0.12134178727865219,2.2950382232666016,0.8619757294654846
1712834504520844800,7.8488447265625,2.1698145866394043,5.804018974304199,4.169070243835449
1712834504540844800,7.8688447265625,1.9978457689285278,5.81089973449707,4.25042724609375
1712834504560844800,7.8888447265625,4.2514872550964355,6.013671875,8.58070182800293
1712834504580844800,7.9088447265625,5.229588508605957,4.818723678588867,11.336568832397461
1712834504600844800,7.9288447265625,-0.7938264012336731,6.986153602600098,5.7800164222717285
1712834504620845300,7.94884521484375,-1.1807953119277954,7.024494171142578,5.589760780334473
1712834504640845300,7.96884521484375,-6.2439398765563965,6.286428451538086,-4.807135581970215
1712834504660845300,7.98884521484375,-0.769902229309082,4.027405738830566,-3.298001527786255
1712834504680845300,8.00884521484375,4.322240829467773,1.2798175811767578,0.2717025876045227
1712834504700845300,8.02884521484375,-0.17200398445129395,-2.4518280029296875,-1.5930984020233154
1712834504720845000,8.048844970703126,-0.6401221752166748,-2.2616758346557617,-1.4150813817977905
1712834504740845000,8.068844970703125,-10.19261360168457,-4.566529750823975,-10.596861839294434
1712834504760845300,8.08884521484375,-10.671625137329102,-6.023706436157227,-8.443726539611816
1712834504780845300,8.10884521484375,-8.112456321716309,-5.753518104553223,-1.008637547492981
1712834504800845300,8.12884521484375,-8.283061981201172,-5.669166564941406,-1.1309672594070435
1712834504820845300,8.14884521484375,-5.1367363929748535,-5.03806209564209,2.259620189666748
1712834504840845300,8.16884521484375,-6.289448261260986,-4.581045150756836,-0.5695109367370605
1712834504860845000,8.188844970703125,-5.527372360229492,-2.3008017539978027,-1.8737714290618896
1712834504880845000,8.208844970703124,-4.346079349517822,-0.7745652198791504,-2.4480345249176025
1712834504900845000,8.228844970703125,-4.033819675445557,-0.9081816673278809,-2.3309898376464844
1712834504920845000,8.248844970703125,-4.319484233856201,1.5472288131713867,-3.6700165271759033
1712834504940845000,8.268844970703125,-3.8711509704589844,1.3618144989013672,-3.832035541534424
1712834504960845000,8.288844970703124,-3.2680633068084717,5.763210296630859,-3.7080883979797363
1712834504980845000,8.308844970703126,-1.7338063716888428,6.830660820007324,0.2532435357570648
1712834505000845000,8.328844970703125,1.9130027294158936,5.6149187088012695,4.844205856323242
1712834505020845000,8.348844970703125,4.195167064666748,0.1139822006225586,7.859800338745117
1712834505040845000,8.368844970703124,4.464555740356445,0.0737752914428711,7.875095844268799
1712834505060845000,8.388844970703126,-0.6129081845283508,-2.5949931144714355,11.65693187713623
1712834505080845000,8.408844970703125,0.02248537540435791,4.007062911987305,1.951501488685608
1712834505100845000,8.428844970703125,0.31354251503944397,4.006006240844727,1.9712188243865967
1712834505120845300,8.44884521484375,9.226491928100586,-0.21440887451171875,5.347477436065674
1712834505140845300,8.46884521484375,6.94852352142334,-1.3353157043457031,3.5115737915039062
1712834505160845300,8.48884521484375,3.595919132232666,1.1276226043701172,0.9908525943756104
1712834505180845300,8.50884521484375,1.0492591857910156,2.7779855728149414,-0.5055292844772339
1712834505200845300,8.52884521484375,0.8854064345359802,2.1313295364379883,-1.6669903993606567
1712834505220845000,8.548844970703126,1.1972774267196655,1.7623558044433594,-1.460756778717041
1712834505240845000,8.568844970703125,0.8943116664886475,1.4143962860107422,-0.04152969643473625
1712834505260845300,8.58884521484375,0.9312683343887329,0.20164108276367188,1.5362638235092163
1712834505280845300,8.60884521484375,1.5209615230560303,-0.5474529266357422,2.569580316543579
1712834505300845300,8.62884521484375,1.0247786045074463,-0.9929637908935547,2.896578550338745
1712834505320845300,8.64884521484375,0.18622532486915588,-1.3966007232666016,2.391629934310913
1712834505340845300,8.66884521484375,-0.25474515557289124,-1.546370506286621,1.566660761833191
1712834505360845000,8.688844970703125,-0.17479118704795837,-1.5097827911376953,0.9763067960739136
1712834505380845000,8.708844970703124,-0.2522984743118286,-1.2986078262329102,0.7407280802726746
1712834505400845000,8.728844970703125,-0.42950230836868286,-1.4656429290771484,0.5663418173789978
1712834505420845000,8.748844970703125,-0.4562051296234131,-1.4629278182983398,0.6715680360794067
1712834505440845000,8.768844970703125,-0.5782381296157837,-2.408470630645752,0.8480243682861328
1712834505460845000,8.788844970703124,-0.009336709976196289,-2.767296314239502,0.8538985252380371
1712834505480845000,8.808844970703126,0.16482436656951904,-2.9140119552612305,0.6224331259727478
1712834505500845000,8.828844970703125,0.20873451232910156,-2.907109260559082,0.7768129706382751
1712834505520845000,8.848844970703125,-0.6901828646659851,-0.2047882080078125,-0.581976056098938
1712834505540845000,8.868844970703124,-0.925787091255188,3.6893205642700195,-0.5010439157485962
1712834505560845000,8.888844970703126,-0.9223121404647827,7.700250625610352,1.8676061630249023
1712834505580845000,8.908844970703125,1.30672287940979,5.94997501373291,5.295357704162598
1712834505600845000,8.928844970703125,4.936766624450684,3.0267601013183594,10.44444465637207
1712834505620845300,8.94884521484375,4.318190097808838,3.0208511352539062,11.515555381774902
1712834505640845300,8.96884521484375,4.098745822906494,3.032938003540039,11.430610656738281
1712834505660845300,8.98884521484375,-2.1582932472229004,6.306581497192383,2.6741504669189453
1712834505680845300,9.00884521484375,-6.349849224090576,7.600530624389648,-5.498081207275391
1712834505700845300,9.02884521484375,-6.698396682739258,7.664822578430176,-5.480648517608643
1712834505720845000,9.048844970703126,3.302647352218628,5.96651554107666,-5.776350975036621
1712834505740845000,9.068844970703125,6.061643123626709,0.15606307983398438,-1.1067527532577515
1712834505760845300,9.08884521484375,-7.077568054199219,-2.0735840797424316,-6.696173191070557
1712834505780845300,9.10884521484375,-7.240313529968262,-1.987499713897705,-6.556337833404541
1712834505800845300,9.12884521484375,-11.169828414916992,-1.7223725318908691,-8.062036514282227
1712834505820845300,9.14884521484375,-7.8843488693237305,-4.045541763305664,4.322351455688477
1712834505840845300,9.16884521484375,-5.030440807342529,-4.412888526916504,5.842947006225586
1712834505860845000,9.188844970703125,-5.114559173583984,-4.386166572570801,5.7516865730285645
1712834505880845000,9.208844970703124,-7.764398574829102,-4.410325050354004,0.1151123046875
1712834505900845000,9.228844970703125,-8.490269660949707,-3.2138705253601074,-1.8647433519363403
1712834505920845000,9.248844970703125,-7.323694229125977,-2.265615940093994,-2.8078348636627197
1712834505940845000,9.268844970703125,-4.772679328918457,-1.8154444694519043,-3.500716209411621
1712834505960845000,9.288844970703124,-2.6206085681915283,0.01566028594970703,-4.320944309234619
1712834505980845000,9.308844970703126,-1.6143593788146973,3.0932607650756836,-5.798762321472168
1712834506000845000,9.328844970703125,-0.19691061973571777,7.012528419494629,-7.223078727722168
1712834506020845000,9.348844970703125,0.2210313081741333,6.949240684509277,-7.239156723022461
1712834506040845000,9.368844970703124,-0.8971906304359436,7.954273223876953,-6.024828910827637
1712834506060845000,9.388844970703126,1.6076526641845703,2.633983612060547,13.033113479614258
1712834506080845000,9.408844970703125,-1.9322521686553955,-2.5520405769348145,19.555448532104492
1712834506100845000,9.428844970703125,-1.5119357109069824,-2.574659824371338,19.52747344970703
1712834506120845300,9.44884521484375,0.19238165020942688,2.2235145568847656,2.16060209274292
1712834506140845300,9.46884521484375,0.44404855370521545,2.2263784408569336,2.0869433879852295
1712834506160845300,9.48884521484375,9.08737850189209,1.0969362258911133,2.1844594478607178
1712834506180845300,9.50884521484375,5.782900810241699,-2.5089054107666016,-1.5935547351837158
1712834506200845300,9.52884521484375,1.2313567399978638,2.061929702758789,-3.094756841659546
1712834506220845000,9.548844970703126,1.2499823570251465,2.0518674850463867,-3.369643449783325
1712834506240845000,9.568844970703125,0.1502572000026703,-0.13368701934814453,-2.589837074279785
1712834506260845300,9.58884521484375,1.3760440349578857,-0.05804920196533203,0.7677677869796753
1712834506280845300,9.60884521484375,0.8475064635276794,0.42401981353759766,2.883704423904419
1712834506300845300,9.62884521484375,0.5296036005020142,-0.26951122283935547,3.446913719177246
1712834506320845300,9.64884521484375,0.6163977384567261,-1.0513458251953125,2.879852771759033
1712834506340845300,9.66884521484375,-0.1067807525396347,-0.4819192886352539,2.4587676525115967
1712834506360845000,9.688844970703125,-0.7937206625938416,-0.17411041259765625,1.774390697479248
1712834506380845000,9.708844970703124,-0.47812342643737793,-0.360198974609375,1.4278420209884644
1712834506400845000,9.728844970703125,0.2549211382865906,-0.6849536895751953,1.227389931678772
1712834506420845000,9.748844970703125,0.2061784267425537,-0.6838836669921875,1.319207787513733
1712834506440845000,9.768844970703125,0.4508092999458313,-0.9172534942626953,1.3557050228118896
1712834506460845000,9.788844970703124,0.27592194080352783,-1.1310443878173828,0.9985924959182739
1712834506480845000,9.808844970703126,-0.10322526097297668,-1.389643669128418,0.16954436898231506
1712834506500845000,9.828844970703125,-0.01566445827484131,-1.6161279678344727,-0.15003186464309692
1712834506520845000,9.848844970703125,-0.1040184497833252,-0.38067626953125,0.5383788347244263
1712834506540845000,9.868844970703124,-0.6456664204597473,2.199871063232422,0.9729294180870056
1712834506560845000,9.888844970703126,-1.7891870737075806,4.393088340759277,1.1615350246429443
1712834506580845000,9.908844970703125,-1.8158776760101318,4.404450416564941,1.284156322479248
1712834506600845000,9.928844970703125,3.5799355506896973,3.344851493835449,6.106466770172119
1712834506620845300,9.94884521484375,4.878174781799316,2.59047794342041,7.9577317237854
1712834506640845300,9.96884521484375,4.673943519592285,2.601445198059082,7.88134765625
1712834506660845300,9.98884521484375,0.8500525951385498,2.6861934661865234,4.511003494262695
1712834506680845300,10.00884521484375,-2.077394962310791,3.2679338455200195,0.7268551588058472
1712834506700845300,10.02884521484375,-4.009925842285156,3.9319067001342773,-5.875164031982422
1712834506720845000,10.048844970703126,8.548639297485352,3.7803993225097656,-2.5444436073303223
1712834506740845000,10.068844970703125,6.268460273742676,-0.9363431930541992,1.574199914932251
1712834506760845300,10.08884521484375,-2.221757173538208,-0.49622631072998047,-2.9845807552337646
1712834506780845300,10.10884521484375,-2.6348133087158203,-0.29173946380615234,-2.7000010013580322
1712834506800845300,10.12884521484375,-8.637335777282715,-0.6567602157592773,-7.799304962158203
1712834506820845300,10.14884521484375,-9.84406852722168,-2.3480725288391113,-2.2126896381378174
1712834506840845300,10.16884521484375,-10.134037017822266,-2.250397205352783,-2.4723103046417236
1712834506860845000,10.188844970703125,-5.805377960205078,-3.9399771690368652,6.011343479156494
1712834506880845000,10.208844970703124,-5.876847743988037,-3.9138054847717285,5.908045768737793
1712834506900845000,10.228844970703125,-6.622074604034424,-2.53898286819458,2.231736183166504
1712834506920845000,10.248844970703125,-7.859774112701416,-2.24014949798584,-0.21332335472106934
1712834506940845000,10.268844970703125,-7.81386661529541,-2.8931589126586914,-2.051506280899048
1712834506960845000,10.288844970703124,-7.413139343261719,-3.0661420822143555,-2.013503313064575
1712834506980845000,10.308844970703126,-7.087549686431885,-2.7840747833251953,-2.787583827972412
1712834507000845000,10.328844970703125,-2.628145694732666,1.5146265029907227,-3.9541823863983154
1712834507020845000,10.348844970703125,-0.3014625310897827,4.645959854125977,-5.322368144989014
1712834507040845000,10.368844970703124,1.3703581094741821,8.704482078552246,-5.8299384117126465
1712834507060845000,10.388844970703126,1.7138835191726685,8.04658031463623,-2.5372066497802734
1712834507080845000,10.408844970703125,2.7468063831329346,3.992703437805176,5.653356552124023
1712834507100845000,10.428844970703125,2.224246025085449,1.2970600128173828,12.587932586669922
1712834507120845300,10.44884521484375,2.4581663608551025,1.2789030075073242,12.52151107788086
1712834507140845300,10.46884521484375,-4.205961227416992,2.909581184387207,12.554811477661133
1712834507160845300,10.48884521484375,0.12108004093170166,3.8939971923828125,0.8383879661560059
1712834507180845300,10.50884521484375,8.837455749511719,3.7111759185791016,3.22005558013916
1712834507200845300,10.52884521484375,8.855096817016602,3.7068843841552734,3.151376724243164
1712834507220845000,10.548844970703126,10.254155158996582,0.6398754119873047,2.206239700317383
1712834507240845000,10.568844970703125,0.28796446323394775,3.5142745971679688,-2.151810884475708
1712834507260845300,10.58884521484375,0.30695903301239014,3.5094900131225586,-2.402087688446045
1712834507280845300,10.60884521484375,0.1120842695236206,-0.7146682739257812,-2.886018753051758
1712834507300845300,10.62884521484375,0.4708139896392822,-0.19809722900390625,0.4959220886230469
1712834507320845300,10.64884521484375,0.2936263680458069,-0.40118885040283203,2.1752610206604004
1712834507340845300,10.66884521484375,0.302429735660553,-1.1428279876708984,2.846892833709717
1712834507360845000,10.688844970703125,0.1692296266555786,-0.781982421875,2.6918559074401855
1712834507380845000,10.708844970703124,-0.438155859708786,-0.40735912322998047,2.405639171600342
1712834507400811500,10.7288115234375,-0.8581697940826416,-0.9085407257080078,2.1717581748962402
1712834507420778200,10.7487783203125,-0.6103583574295044,-1.297133445739746,2.2081949710845947
1712834507440745000,10.768744873046876,-0.0022647306323051453,-1.237889289855957,2.087204694747925
1712834507460711700,10.788711669921875,0.35610127449035645,-1.2817106246948242,1.107115387916565
1712834507480678700,10.8086787109375,0.3289531469345093,-1.2824935913085938,1.1824506521224976
1712834507500645000,10.82864501953125,0.3126983046531677,-1.7137441635131836,0.02794599160552025
1712834507520611800,10.84861181640625,-0.05972937121987343,-2.8000593185424805,-1.3311747312545776
1712834507540578600,10.86857861328125,-0.028504064306616783,-2.797985076904297,-1.2169760465621948
1712834507560545300,10.888545166015625,-0.37580928206443787,-3.019143581390381,-1.3237934112548828
1712834507580511700,10.90851171875,-0.9361496567726135,1.3689298629760742,0.12520721554756165
1712834507600478500,10.928478515625,-1.3495593070983887,7.452858924865723,1.0781631469726562
1712834507620445200,10.948445068359375,-1.3888955116271973,7.4651947021484375,1.241243600845337
1712834507640412000,10.968411865234375,4.351318359375,5.108885765075684,8.96495532989502
1712834507660378600,10.988378662109374,5.696195125579834,4.463489532470703,13.735201835632324
1712834507680345000,11.008344970703124,1.876520037651062,4.871133804321289,11.677447319030762
1712834507700311800,11.028311767578124,1.6948883533477783,4.8699541091918945,11.465529441833496
1712834507720278300,11.0482783203125,-2.5394866466522217,5.667941093444824,3.940579891204834
1712834507740245000,11.068244873046876,-3.934849977493286,6.30998420715332,-1.151282787322998
1712834507760211500,11.08821142578125,0.21972370147705078,1.8765182495117188,-5.573464870452881
1712834507780178200,11.10817822265625,5.379753589630127,-1.2727718353271484,-3.1088263988494873
1712834507800145000,11.128144775390625,4.780343055725098,-1.1092157363891602,-2.962064027786255
1712834507820111600,11.148111572265625,-3.3734657764434814,-4.772701740264893,-8.002950668334961
1712834507840078300,11.168078369140625,-10.150757789611816,-4.267826080322266,-10.12952709197998
1712834507860044800,11.188044921875,-10.364517211914062,-4.158538818359375,-9.906712532043457
1712834507880011500,11.208011474609375,-11.60354995727539,-4.865440845489502,-1.0921518802642822
1712834507899978000,11.22797802734375,-11.866539001464844,-4.749653339385986,-1.2174582481384277
1712834507919944700,11.24794482421875,-6.128998279571533,-4.350341796875,4.973005771636963
1712834507939911400,11.267911376953125,-6.097307205200195,-4.36207389831543,5.031195163726807
1712834507959878100,11.287878173828124,-5.234453201293945,-3.7341747283935547,4.530303478240967
1712834507979844900,11.307844970703124,-3.7957255840301514,1.315633773803711,-0.2098604440689087
1712834507999844900,11.327844970703126,-2.9538283348083496,2.246697425842285,-2.698544979095459
1712834508019844900,11.347844970703125,-2.5050570964813232,2.064485549926758,-2.829106569290161
1712834508039844900,11.367844970703125,-1.8082045316696167,3.6276063919067383,-5.850344657897949
1712834508059844900,11.387844970703124,-1.3780356645584106,10.063591957092285,-1.9248898029327393
1712834508079844600,11.4078447265625,-1.0265873670578003,9.980802536010742,-2.0671215057373047
1712834508099844600,11.4278447265625,2.4204487800598145,-0.7014093399047852,7.684528827667236
1712834508119844600,11.4478447265625,-1.5968084335327148,-3.6720690727233887,12.49831485748291
1712834508139844600,11.4678447265625,-4.137825012207031,2.5422353744506836,15.713751792907715
1712834508159844600,11.4878447265625,-1.906751275062561,2.052130699157715,2.285712480545044
1712834508179844600,11.5078447265625,5.735906600952148,0.9928560256958008,1.4521888494491577
1712834508199844600,11.5278447265625,9.740641593933105,-0.040101051330566406,1.8214747905731201
1712834508219844600,11.5478447265625,5.624346733093262,0.5990142822265625,0.11836481094360352
1712834508239844600,11.5678447265625,1.8798857927322388,2.059398651123047,-1.403114676475525
1712834508259844600,11.5878447265625,0.23677855730056763,1.9342288970947266,-2.481621503829956
1712834508279844600,11.6078447265625,-0.8443787097930908,0.14634323120117188,-2.1838326454162598
1712834508299844600,11.6278447265625,-0.9798219203948975,0.15514087677001953,-2.281095027923584
1712834508319844600,11.6478447265625,-1.722967267036438,-0.7759256362915039,-0.8303016424179077
1712834508339844900,11.667844970703126,-2.0663323402404785,-0.6909036636352539,0.8468033075332642
1712834508359844900,11.687844970703125,0.4165351986885071,-1.5445060729980469,3.0961761474609375
1712834508379844900,11.707844970703125,0.962581217288971,-1.5589179992675781,3.2008485794067383
1712834508399844900,11.727844970703124,0.2372238039970398,-1.30914306640625,2.672041416168213
1712834508419844900,11.747844970703126,0.19722318649291992,-1.3052101135253906,2.6696672439575195
1712834508439844600,11.7678447265625,-0.550851583480835,-0.9699287414550781,1.1969941854476929
1712834508459844600,11.7878447265625,-0.6968978643417358,-0.9893369674682617,0.7227546572685242
1712834508479844900,11.807844970703124,-0.6818363070487976,-0.9949760437011719,0.797737717628479
1712834508499844900,11.827844970703126,-0.6895179748535156,-1.84257173538208,0.29114800691604614
1712834508519844900,11.847844970703125,-0.6468231678009033,-1.850318431854248,0.3965241312980652
1712834508539844900,11.867844970703125,0.429223895072937,-2.0422463417053223,0.5723065733909607
1712834508559844900,11.887844970703124,-0.13523924350738525,-0.8899908065795898,0.6245227456092834
1712834508579844600,11.9078447265625,-0.0841454267501831,-0.8938188552856445,0.7719312906265259
1712834508599844600,11.9278447265625,-0.7448984980583191,1.5701570510864258,1.3754314184188843
1712834508619844600,11.9478447265625,2.2960379123687744,4.91172981262207,3.3062405586242676
1712834508639844600,11.9678447265625,4.68818998336792,5.1251115798950195,5.958317756652832
1712834508659844600,11.9878447265625,4.530903339385986,5.140642166137695,5.988863945007324
1712834508679844600,12.0078447265625,4.430413722991943,4.328972816467285,7.777005672454834
1712834508699844600,12.0278447265625,1.9284452199935913,4.191167831420898,4.03959321975708
1712834508719844600,12.0478447265625,1.5541632175445557,4.253230094909668,4.000555515289307
1712834508739844600,12.0678447265625,-1.1905289888381958,4.685280799865723,1.8534928560256958
1712834508759844600,12.0878447265625,-4.521984100341797,3.8316116333007812,-2.77115797996521
1712834508779844600,12.1078447265625,-0.17983269691467285,1.6014795303344727,-1.5810085535049438
1712834508799844600,12.1278447265625,5.511214256286621,1.4712285995483398,4.824892044067383
1712834508819844600,12.1478447265625,4.947912216186523,1.7328777313232422,4.943200588226318
1712834508839844900,12.167844970703126,-6.974271774291992,-1.5315122604370117,-4.115123271942139
1712834508859844900,12.187844970703125,-7.223964691162109,-1.3612337112426758,-3.8516764640808105
1712834508879844900,12.207844970703125,-7.909963607788086,-2.047180652618408,-5.70923376083374
1712834508899844900,12.227844970703124,-7.392757415771484,-2.802420139312744,-1.819075345993042
1712834508919844900,12.247844970703126,-7.123581886291504,-3.136826515197754,-0.004425227642059326
1712834508939844600,12.2678447265625,-6.393799304962158,-3.1031575202941895,0.11463212966918945
1712834508959844600,12.2878447265625,-6.684902667999268,-4.255556106567383,-0.3587205410003662
1712834508979844900,12.307844970703124,-6.549742698669434,-4.330781936645508,-0.20002496242523193
1712834508999844900,12.327844970703126,-8.553141593933105,-2.6859216690063477,-1.5810092687606812
1712834509019844900,12.347844970703125,-8.013666152954102,-1.0951523780822754,-1.7363277673721313
1712834509039844900,12.367844970703125,-6.8877739906311035,-0.12419700622558594,-2.2092885971069336
1712834509059844900,12.387844970703124,-5.368255138397217,0.8076391220092773,-2.6140999794006348
1712834509079844600,12.4078447265625,-4.801130294799805,0.5549736022949219,-2.763695001602173
1712834509099844600,12.4278447265625,0.07792210578918457,6.120307922363281,-5.893884658813477
1712834509119844600,12.4478447265625,0.8317680358886719,8.97159194946289,-7.470503330230713
1712834509139844600,12.4678447265625,-2.227022647857666,4.818790435791016,-3.1912150382995605
1712834509159844600,12.4878447265625,-2.5402629375457764,4.533738136291504,7.8264875411987305
1712834509179844600,12.5078447265625,-2.2977294921875,4.483709335327148,7.686645030975342
1712834509199844600,12.5278447265625,-0.9756208062171936,2.1888046264648438,23.329484939575195
1712834509219844600,12.5478447265625,-0.5725558400154114,2.172163963317871,23.427827835083008
1712834509239844600,12.5678447265625,2.5489988327026367,4.841595649719238,7.3957366943359375
1712834509259844600,12.5878447265625,2.7441112995147705,4.846844673156738,7.445392608642578
1712834509279844600,12.6078447265625,6.722104549407959,0.034610748291015625,0.9985244274139404
1712834509299844600,12.6278447265625,1.6001203060150146,3.1440935134887695,-1.2845782041549683
1712834509319844600,12.6478447265625,-0.8226864337921143,1.4194822311401367,-2.0777382850646973
1712834509339844900,12.667844970703126,-0.8784769773483276,1.4065361022949219,-2.224203109741211
1712834509359844900,12.687844970703125,1.5942296981811523,1.3687000274658203,0.4689028859138489
1712834509379844900,12.707844970703125,1.4507325887680054,1.3625497817993164,0.37130028009414673
1712834509399844900,12.727844970703124,0.10037045180797577,-0.5797910690307617,3.0087802410125732
1712834509419844900,12.747844970703126,-0.059300318360328674,-0.21944713592529297,2.7381081581115723
1712834509439844600,12.7678447265625,-0.22164615988731384,-0.6429262161254883,2.5897440910339355
1712834509459844600,12.7878447265625,-0.28750601410865784,-0.6417341232299805,2.5260965824127197
1712834509479844900,12.807844970703124,-0.6589135527610779,-0.077056884765625,2.387939691543579
1712834509499844900,12.827844970703126,-0.7137271165847778,-0.07461929321289062,2.3861420154571533
1712834509519844900,12.847844970703125,-0.4133475720882416,-0.2760181427001953,1.6953237056732178
1712834509539844900,12.867844970703125,0.09508490562438965,-0.6356592178344727,1.4064686298370361
1712834509559844900,12.887844970703124,0.6321105360984802,-1.2230606079101562,0.8024968504905701
1712834509579844600,12.9078447265625,0.548588752746582,-2.04244327545166,0.28214403986930847
1712834509599844600,12.9278447265625,0.3248351812362671,-2.8323535919189453,-0.0612216591835022
1712834509619844600,12.9478447265625,-0.19414585828781128,-3.073047161102295,-0.4650763273239136
1712834509639844600,12.9678447265625,-0.4443606734275818,-1.7783846855163574,-0.4707011580467224
1712834509659844600,12.9878447265625,-1.143000602722168,0.9008941650390625,-0.020021378993988037
1712834509679844600,13.0078447265625,-1.6662681102752686,4.808588981628418,0.7570263147354126
1712834509699844600,13.0278447265625,-1.711442470550537,4.8194684982299805,0.8649126291275024
1712834509719844600,13.0478447265625,-1.0194416046142578,6.86533260345459,3.2448582649230957
1712834509739844600,13.0678447265625,4.787457466125488,2.235428810119629,8.82681941986084
1712834509759844600,13.0878447265625,3.4900546073913574,3.260748863220215,9.763248443603516
1712834509779844600,13.1078447265625,0.6598974466323853,4.597639083862305,6.765277862548828
1712834509799844600,13.1278447265625,-1.874837875366211,5.051204681396484,1.214138150215149
1712834509819844600,13.1478447265625,-5.168153762817383,5.018750190734863,-4.535219669342041
1712834509839844900,13.167844970703126,-1.610451102256775,2.97037410736084,-7.3198699951171875
1712834509859844900,13.187844970703125,-2.1722917556762695,3.1354732513427734,-7.286820411682129
1712834509879844900,13.207844970703125,3.0781357288360596,-2.9133167266845703,-0.7436904311180115
1712834509899844900,13.227844970703124,2.512324810028076,-2.6424036026000977,-0.4846872091293335
1712834509919844900,13.247844970703126,-5.066033363342285,-2.9638094902038574,-4.087334632873535
1712834509939844600,13.2678447265625,-9.849876403808594,-2.9732604026794434,-8.176901817321777
1712834509959844600,13.2878447265625,-6.830959320068359,-2.9785008430480957,-1.2616150379180908
1712834509979844900,13.307844970703124,-4.9411845207214355,-2.9803242683410645,2.635469913482666
1712834509999844900,13.327844970703126,-5.586021900177002,-2.494953155517578,3.491140365600586
1712834510019844900,13.347844970703125,-5.622977256774902,-2.4655399322509766,3.522343158721924
1712834510039844900,13.367844970703125,-6.2689056396484375,-1.4196791648864746,0.6045674681663513
1712834510059844900,13.387844970703124,-6.475119590759277,-1.8700480461120605,0.5382672548294067
1712834510079844600,13.4078447265625,-6.25401496887207,-1.9840331077575684,0.6992406845092773
1712834510099844600,13.4278447265625,-4.367572784423828,-0.21944522857666016,0.3899649381637573
1712834510119844600,13.4478447265625,-2.2975594997406006,0.7518329620361328,-0.4451291561126709
1712834510139844600,13.4678447265625,-1.8957204818725586,2.4292659759521484,-4.215278625488281
1712834510159844600,13.4878447265625,-1.4776633977890015,5.257607460021973,-5.467643737792969
1712834510179844600,13.5078447265625,-0.8062331676483154,7.270814895629883,-5.015602111816406
1712834510199844600,13.5278447265625,-0.38846492767333984,7.142579078674316,-5.111659049987793
1712834510219844600,13.5478447265625,0.29355287551879883,5.098796844482422,-1.3499422073364258
1712834510239844600,13.5678447265625,1.4874924421310425,3.0517492294311523,5.287515163421631
1712834510259844600,13.5878447265625,1.0005630254745483,0.7221288681030273,7.386102676391602
1712834510279844600,13.6078447265625,-2.7398972511291504,1.3505897521972656,11.09673023223877
1712834510299844600,13.6278447265625,-2.2925219535827637,2.7936105728149414,11.095404624938965
1712834510319844600,13.6478447265625,7.260061264038086,-0.3849172592163086,8.157407760620117
1712834510339844900,13.667844970703126,8.294306755065918,-0.4529733657836914,5.582622528076172
1712834510359844900,13.687844970703125,8.336644172668457,-0.4610910415649414,5.473435878753662
1712834510379844900,13.707844970703125,2.7449822425842285,2.87717342376709,-2.9159367084503174
1712834510399844900,13.727844970703124,-0.22719094157218933,3.2734756469726562,-5.945688724517822
1712834510419844900,13.747844970703126,-1.293969988822937,1.436121940612793,-4.7382001876831055
1712834510439844600,13.7678447265625,-0.8733030557632446,0.2766847610473633,-1.0267784595489502
1712834510459844600,13.7878447265625,-0.460263192653656,-0.07462406158447266,1.7960445880889893
1712834510479844900,13.807844970703124,0.7144368886947632,-0.012598991394042969,2.510310173034668
1712834510499844900,13.827844970703126,0.6124125123023987,-0.0037755966186523438,2.461181640625
1712834510519844900,13.847844970703125,1.0081512928009033,-1.613133430480957,2.6646854877471924
1712834510539844900,13.867844970703125,0.3484235405921936,-2.0099263191223145,3.0225670337677
1712834510559844900,13.887844970703124,-0.19262319803237915,-1.926894187927246,2.514597177505493
1712834510579844600,13.9078447265625,-0.2797244191169739,-1.9161062240600586,2.4890754222869873
1712834510599844600,13.9278447265625,-0.9733248949050903,-1.6441307067871094,1.1759575605392456
1712834510619844600,13.9478447265625,-1.1409598588943481,-1.6171083450317383,0.2507987916469574
1712834510639844600,13.9678447265625,-0.7846691608428955,-1.4104423522949219,0.06097176671028137
1712834510659844600,13.9878447265625,-0.44892024993896484,-1.5815916061401367,-0.16687661409378052
1712834510679844600,14.0078447265625,-0.46366941928863525,-1.5825262069702148,-0.07318741083145142
1712834510699844600,14.0278447265625,-0.4122292399406433,-1.4923410415649414,-0.3576222062110901
1712834510719844600,14.0478447265625,-0.28629767894744873,-0.9919300079345703,-0.5051122307777405
1712834510739844600,14.0678447265625,-0.24986469745635986,-0.9950437545776367,-0.3286669850349426
1712834510759844600,14.0878447265625,-0.850866436958313,4.628827095031738,0.7355021238327026
1712834510779844600,14.1078447265625,-0.8018296957015991,4.632360458374023,0.930387020111084
1712834510799844600,14.1278447265625,1.6421229839324951,3.8193845748901367,4.791383743286133
1712834510819844600,14.1478447265625,3.166776418685913,3.036282539367676,8.147909164428711
1712834510839844900,14.167844970703126,3.0727615356445312,3.048882484436035,8.152326583862305
1712834510859844900,14.187844970703125,3.793139934539795,2.0513458251953125,9.792740821838379
1712834510879844900,14.207844970703125,0.7343645095825195,3.0506601333618164,3.4296183586120605
1712834510899844900,14.227844970703124,-1.0208990573883057,3.503946304321289,-0.5189506411552429
1712834510919844900,14.247844970703126,-2.492297410964966,3.4229907989501953,-4.27208137512207
1712834510939844600,14.2678447265625,-5.863038063049316,2.6096553802490234,-7.124286651611328
1712834510959844600,14.2878447265625,-6.229588508605957,2.715847969055176,-7.049947738647461
1712834510979844900,14.307844970703124,1.748136281967163,2.361766815185547,-2.765080451965332
1712834510999844900,14.327844970703126,2.2422633171081543,-2.8406124114990234,-1.8339989185333252
1712834511019844900,14.347844970703125,1.8707990646362305,-2.616366386413574,-1.454397439956665
1712834511039844900,14.367844970703125,-4.312862873077393,-2.419009208679199,-5.804967403411865
1712834511059844900,14.387844970703124,-8.558701515197754,-2.121138095855713,-4.977797508239746
1712834511079844600,14.4078447265625,-9.339149475097656,-0.8149933815002441,0.6457884311676025
1712834511099844600,14.4278447265625,-7.037915229797363,-1.8155169486999512,3.5889997482299805
1712834511119844600,14.4478447265625,-7.168099403381348,-1.7793984413146973,3.391296148300171
1712834511139844600,14.4678447265625,-6.290703773498535,-3.8472046852111816,4.301531791687012
1712834511159844600,14.4878447265625,-6.547842025756836,-3.741276264190674,4.405354022979736
1712834511179844600,14.5078447265625,-7.255589485168457,-3.0162811279296875,2.7985610961914062
1712834511199844600,14.5278447265625,-7.035227298736572,-2.8363637924194336,0.5856125354766846
1712834511219844600,14.5478447265625,-3.529542922973633,0.13043689727783203,-3.353148937225342
1712834511239844600,14.5678447265625,-3.6858162879943848,1.6650562286376953,-5.11076021194458
1712834511259844600,14.5878447265625,-3.1274099349975586,3.124349594116211,-6.371635913848877
1712834511279844600,14.6078447265625,2.2449913024902344,6.786113739013672,-6.347853660583496
1712834511299844600,14.6278447265625,3.6405460834503174,7.83555793762207,-3.2348995208740234
1712834511319844600,14.6478447265625,-2.10791277885437,3.887746810913086,2.714904546737671
1712834511339844900,14.667844970703126,-3.9223849773406982,0.5768165588378906,8.729870796203613
1712834511359844900,14.687844970703125,-6.124922275543213,3.0007238388061523,18.467334747314453
1712834511379844900,14.707844970703125,-3.042710304260254,4.5721635818481445,17.231523513793945
1712834511399844900,14.727844970703124,2.4811081886291504,1.2312860488891602,11.07819652557373
1712834511419844900,14.747844970703126,7.765738487243652,0.26324939727783203,7.243722915649414
1712834511439844600,14.7678447265625,7.931495666503906,0.2673501968383789,7.2943902015686035
1712834511459844600,14.7878447265625,3.6742501258850098,1.4930572509765625,-0.3942304849624634
1712834511479844900,14.807844970703124,3.8055834770202637,1.4665594100952148,-0.6472124457359314
1712834511499844900,14.827844970703126,0.44889092445373535,3.0330095291137695,-2.244025230407715
1712834511519844900,14.847844970703125,-0.40108123421669006,1.1622381210327148,-1.5432653427124023
1712834511539844900,14.867844970703125,-0.3491494059562683,0.7362813949584961,-0.24984514713287354
1712834511559844900,14.887844970703124,-0.4679352045059204,0.7323389053344727,-0.3692036271095276
1712834511579844600,14.9078447265625,0.14543095231056213,-0.6214523315429688,2.2787744998931885
1712834511599844600,14.9278447265625,0.5722694396972656,-0.7517185211181641,3.035886526107788
1712834511619844600,14.9478447265625,0.4658905565738678,-1.042555809020996,2.829401731491089
1712834511639844600,14.9678447265625,0.3763863742351532,-1.0379018783569336,2.7696802616119385
1712834511659844600,14.9878447265625,-0.29876744747161865,-0.8206281661987305,1.493282437324524
1712834511679844600,15.0078447265625,-0.5023882389068604,-0.5826683044433594,0.36478111147880554
1712834511699844600,15.0278447265625,-0.34614717960357666,-0.443817138671875,-0.2798117995262146
1712834511719844600,15.0478447265625,-0.33229339122772217,-0.7747745513916016,-0.42049628496170044
1712834511739844600,15.0678447265625,-0.18471354246139526,-1.6903505325317383,-0.23441988229751587
1712834511759844600,15.0878447265625,-0.12407439947128296,-2.3643503189086914,-0.1938450038433075
1712834511779844600,15.1078447265625,-0.11076086759567261,-2.3629722595214844,-0.09102144837379456
1712834511799844600,15.1278447265625,-0.3789791762828827,-2.5742578506469727,0.04072919487953186
1712834511819844600,15.1478447265625,-0.11766910552978516,-2.296915054321289,0.3113812506198883
1712834511839844900,15.167844970703126,-0.249013751745224,-0.4984722137451172,-0.10320025682449341
1712834511859844900,15.187844970703125,-1.508547067642212,5.385807037353516,2.2388696670532227
1712834511879844900,15.207844970703125,1.7554962635040283,4.260242462158203,5.244637489318848
1712834511899844900,15.227844970703124,4.897860527038574,3.453789710998535,8.110355377197266
1712834511919844900,15.247844970703126,4.729525566101074,3.4622764587402344,8.056258201599121
1712834511939844600,15.2678447265625,4.710023880004883,3.7120094299316406,10.701434135437012
1712834511959844600,15.2878447265625,2.257598400115967,4.365431785583496,8.628198623657227
1712834511979844900,15.307844970703124,0.7845885753631592,5.144861221313477,5.055791854858398
1712834511999844900,15.327844970703126,-0.46576762199401855,5.032801628112793,-3.1537065505981445
1712834512019844900,15.347844970703125,7.747348785400391,4.342026710510254,-1.9135137796401978
1712834512039844900,15.367844970703125,7.105618000030518,4.558215141296387,-1.7061364650726318
1712834512059844900,15.387844970703124,-5.389164447784424,-0.8005275726318359,-6.491179943084717
1712834512079844600,15.4078447265625,-8.955942153930664,-1.8885769844055176,-9.349114418029785
1712834512099844600,15.4278447265625,-9.921445846557617,-2.323169708251953,-6.8915324211120605
1712834512119844600,15.4478447265625,-7.546465873718262,-2.9969234466552734,-0.9857059717178345
1712834512139844600,15.4678447265625,-5.702364444732666,-4.145461082458496,3.3858633041381836
1712834512159844600,15.4878447265625,-4.885313034057617,-3.817948341369629,4.459755897521973
1712834512179844600,15.5078447265625,-5.32010555267334,-2.8942112922668457,2.719266176223755
1712834512199844600,15.5278447265625,-6.838771343231201,-2.9512267112731934,0.33324021100997925
1712834512219844600,15.5478447265625,-7.7224907875061035,-2.9189677238464355,-1.3079116344451904
1712834512239844600,15.5678447265625,-7.662697792053223,-2.8192481994628906,-1.939457893371582
1712834512259844600,15.5878447265625,-7.014958381652832,-2.202760696411133,-1.395021677017212
1712834512279844600,15.6078447265625,-5.547778606414795,-0.781219482421875,-1.2835863828659058
1712834512299844600,15.6278447265625,-3.1081595420837402,0.3547210693359375,-2.8994033336639404
1712834512319844600,15.6478447265625,-2.644962787628174,1.910440444946289,-5.222609043121338
1712834512339844900,15.667844970703126,-2.05501651763916,1.755533218383789,-5.295625686645508
1712834512359844900,15.687844970703125,1.5150642395019531,9.74366569519043,-6.724668502807617
1712834512379844900,15.707844970703125,0.3139839172363281,6.868864059448242,-4.50949239730835
1712834512399844900,15.727844970703124,-2.998600721359253,2.9158287048339844,2.7938759326934814
1712834512419844900,15.747844970703126,-3.293646812438965,1.2877883911132812,16.665157318115234
1712834512439844600,15.7678447265625,-3.134995460510254,1.2688627243041992,16.61864471435547
1712834512459844600,15.7878447265625,-1.9755982160568237,3.2054967880249023,25.358272552490234
1712834512479844900,15.807844970703124,0.0408431775867939,0.6077375411987305,5.906606674194336
1712834512499844900,15.827844970703126,0.25705650448799133,0.6109390258789062,5.916580677032471
1712834512519844900,15.847844970703125,5.929853439331055,2.1087379455566406,7.120125770568848
1712834512539844900,15.867844970703125,2.35046648979187,-0.48549842834472656,-2.5381155014038086
1712834512559844900,15.887844970703124,-0.6178009510040283,4.581442832946777,-2.931727409362793
1712834512579844600,15.9078447265625,-1.2069107294082642,3.4152297973632812,-3.1884007453918457
1712834512599844600,15.9278447265625,0.19958576560020447,0.19855213165283203,-2.331880569458008
1712834512619844600,15.9478447265625,0.02120324969291687,0.18210220336914062,-2.409231185913086
1712834512639844600,15.9678447265625,0.15837183594703674,1.0683422088623047,2.2197136878967285
1712834512659844600,15.9878447265625,-0.01589212752878666,1.0628786087036133,2.177436351776123
1712834512679844600,16.0078447265625,0.7292308211326599,-0.8267984390258789,4.251618385314941
1712834512699844600,16.0278447265625,0.6152588129043579,-0.8293733596801758,4.190723896026611
1712834512719844600,16.0478447265625,-0.4443734288215637,-0.5093650817871094,3.2832469940185547
1712834512739844600,16.0678447265625,-0.49950510263442993,-0.507568359375,3.279528856277466
1712834512759844600,16.0878447265625,-1.0813030004501343,-0.4464597702026367,1.0667524337768555
1712834512779844600,16.1078447265625,-1.099436640739441,-0.441314697265625,1.1223196983337402
1712834512799844600,16.1278447265625,-0.5869035124778748,-0.3602485656738281,0.8530904054641724
1712834512819844600,16.1478447265625,0.026427417993545532,-1.3862857818603516,0.31110042333602905
1712834512839844900,16.167844970703126,-0.3985719084739685,-2.337160587310791,0.4065908193588257
1712834512859844900,16.187844970703125,-0.06035420298576355,-2.970578193664551,-0.021294713020324707
1712834512879844900,16.207844970703125,-0.0866745114326477,-2.6267290115356445,-0.08417725563049316
1712834512899844900,16.227844970703124,-0.7414175868034363,-0.6680288314819336,-0.44568920135498047
1712834512919844900,16.247844970703124,-0.8338006734848022,4.1353349685668945,0.6603168249130249
1712834512939844600,16.2678447265625,-0.9154540300369263,8.655593872070312,3.743900775909424
1712834512959844600,16.2878447265625,-1.0010387897491455,8.660551071166992,3.753692865371704
1712834512979844900,16.307844970703126,5.08559513092041,2.8277997970581055,14.064148902893066
1712834512999844900,16.327844970703126,4.835915565490723,2.821104049682617,13.859771728515625
1712834513019844900,16.347844970703125,0.16606807708740234,5.206759452819824,6.871330261230469
1712834513039844900,16.367844970703125,-3.3351635932922363,8.28494644165039,-1.1418137550354004
1712834513059844900,16.387844970703124,-3.6279544830322266,8.326104164123535,-1.2210662364959717
1712834513079844600,16.4078447265625,-7.4023823738098145,7.518342018127441,-9.952310562133789
1712834513099844600,16.4278447265625,-1.2722188234329224,2.977579116821289,-10.125439643859863
1712834513119844600,16.4478447265625,4.661555290222168,-0.4865226745605469,-4.369454383850098
1712834513139844600,16.4678447265625,-4.939304828643799,-2.152210235595703,-5.45958137512207
1712834513159844600,16.4878447265625,-8.899250030517578,-2.2962875366210938,-7.429337024688721
1712834513179844600,16.5078447265625,-8.642955780029297,-4.004848003387451,-4.54520320892334
1712834513199844600,16.5278447265625,-6.987031936645508,-4.627272129058838,-0.7568423748016357
1712834513219844600,16.5478447265625,-6.803448677062988,-4.935317039489746,2.0126407146453857
1712834513239844600,16.5678447265625,-7.628183841705322,-4.879018783569336,1.9420161247253418
1712834513259844600,16.5878447265625,-7.606133460998535,-4.851806640625,2.136925220489502
1712834513279844600,16.6078447265625,-7.825437068939209,-2.730020046234131,-0.41869163513183594
1712834513299844600,16.6278447265625,-5.5659284591674805,0.308441162109375,-1.9445061683654785
1712834513319844600,16.6478447265625,-3.7763261795043945,4.09407901763916,-3.02555251121521
1712834513339844900,16.667844970703126,-0.8030107021331787,6.253628730773926,-3.842005968093872
1712834513359844900,16.687844970703125,0.7585992813110352,6.744163513183594,-2.144420623779297
1712834513379844900,16.707844970703125,0.1928551197052002,5.436147689819336,1.3655463457107544
1712834513399844900,16.727844970703124,-1.3014427423477173,1.9397754669189453,3.5243191719055176
1712834513419844900,16.747844970703124,-1.179270625114441,1.8646039962768555,3.2890000343322754
1712834513439844600,16.7678447265625,-6.977572917938232,-1.6837964057922363,7.7068071365356445
1712834513459844600,16.7878447265625,-6.47176456451416,-1.8053860664367676,7.605169296264648
1712834513479844900,16.807844970703126,-6.3954081535339355,2.4197235107421875,11.366151809692383
1712834513499844900,16.827844970703126,-0.21822220087051392,3.109999656677246,10.282227516174316
1712834513519844900,16.847844970703125,9.174078941345215,0.011599540710449219,6.672765731811523
1712834513539844900,16.867844970703125,9.326678276062012,0.006351470947265625,6.735434532165527
1712834513559844900,16.887844970703124,3.8527307510375977,2.5356712341308594,-0.34515607357025146
1712834513579844600,16.9078447265625,2.1455233097076416,2.9459009170532227,-2.8526930809020996
1712834513599844600,16.9278447265625,2.2511229515075684,2.9283504486083984,-2.9839298725128174
1712834513619844600,16.9478447265625,-0.04861365258693695,1.2589025497436523,-1.658449649810791
1712834513639844600,16.9678447265625,0.33685922622680664,0.5362653732299805,0.945249080657959
1712834513659844600,16.9878447265625,1.2704315185546875,0.013928413391113281,2.860165596008301
1712834513679844600,17.0078447265625,2.1686618328094482,-0.3069190979003906,3.946089029312134
1712834513699844600,17.0278447265625,1.890350341796875,-0.7548398971557617,3.763533115386963
1712834513719844600,17.0478447265625,0.7766170501708984,-1.1854352951049805,3.061558246612549
1712834513739844600,17.0678447265625,0.6746485233306885,-1.1772737503051758,3.0171427726745605
1712834513759844600,17.0878447265625,-0.7249703407287598,-1.167999267578125,1.4314333200454712
1712834513779844600,17.1078447265625,-0.7031272649765015,-1.6248140335083008,0.4983908534049988
1712834513799844600,17.1278447265625,-0.45962125062942505,-1.9368395805358887,-0.06382977962493896
1712834513819844600,17.1478447265625,-0.5332707762718201,-1.9253334999084473,-0.021907299757003784
1712834513839844900,17.167844970703126,-0.5016168355941772,-0.859379768371582,0.245880588889122
1712834513859844900,17.187844970703125,-0.5278581380844116,-0.8514928817749023,0.3241389989852905
1712834513879844900,17.207844970703125,-0.19555795192718506,-0.4305906295776367,0.7409899830818176
1712834513899844900,17.227844970703124,0.22219181060791016,-0.8374404907226562,0.42689913511276245
1712834513919844900,17.247844970703124,0.5001789331436157,-1.1866998672485352,0.2828962802886963
1712834513939844600,17.2678447265625,0.7082228660583496,-1.3961515426635742,-0.2959820032119751
1712834513959844600,17.2878447265625,0.7170933485031128,-1.3810195922851562,-0.1505368947982788
1712834513979844900,17.307844970703126,-0.5378137826919556,1.5605716705322266,-0.6480194330215454
1712834513999844900,17.327844970703126,-0.5215108394622803,3.670254707336426,0.8219699263572693
1712834514019844900,17.347844970703125,0.9237929582595825,2.151726722717285,2.5106170177459717
1712834514039844900,17.367844970703125,0.7928640842437744,2.1788721084594727,2.556800365447998
1712834514059844900,17.387844970703124,3.3860397338867188,1.4810333251953125,8.06850814819336
1712834514079844600,17.4078447265625,3.1650876998901367,1.525766372680664,8.08212661743164
1712834514099844600,17.4278447265625,3.6985034942626953,3.058657646179199,8.225728034973145
1712834514119844600,17.4478447265625,-1.750960111618042,7.132643699645996,4.745029449462891
1712834514139844600,17.4678447265625,-0.27381205558776855,7.089963912963867,-0.13453030586242676
1712834514159844600,17.4878447265625,6.901590347290039,6.776511192321777,3.0022072792053223
1712834514179844600,17.5078447265625,0.9519898891448975,3.2065858840942383,0.9587914943695068
1712834514199844600,17.5278447265625,-5.437108516693115,-0.3641786575317383,-7.010424613952637
1712834514219844600,17.5478447265625,-5.6568779945373535,-0.23180294036865234,-6.853082656860352
1712834514239844600,17.5678447265625,-9.348368644714355,-2.899474620819092,-9.364218711853027
1712834514259844600,17.5878447265625,-7.678308486938477,-2.6383137702941895,-2.7401463985443115
1712834514279844600,17.6078447265625,-7.233210563659668,-2.8970279693603516,0.7180293798446655
1712834514299844600,17.6278447265625,-6.032435417175293,-4.831480503082275,2.36958646774292
1712834514319844600,17.6478447265625,-5.882012844085693,-4.116018772125244,4.921846866607666
1712834514339844900,17.667844970703126,-6.645564079284668,-3.1393184661865234,2.9403793811798096
1712834514359844900,17.687844970703125,-7.841217994689941,-3.245025157928467,-0.3612412214279175
1712834514379844900,17.707844970703125,-7.704789161682129,-2.8245115280151367,-2.5218582153320312
1712834514399844900,17.727844970703124,-7.232870101928711,-3.040111541748047,-2.4992189407348633
1712834514419844900,17.747844970703124,-4.76378870010376,0.6124734878540039,-2.9536380767822266
1712834514439844600,17.7678447265625,-2.972874164581299,0.9609889984130859,-4.3506951332092285
1712834514459844600,17.7878447265625,-0.8603349924087524,3.3404054641723633,-5.552847862243652
1712834514479844900,17.807844970703126,1.2002416849136353,8.348457336425781,-7.008614540100098
1712834514499844900,17.827844970703126,1.645397424697876,8.29233455657959,-6.9059038162231445
1712834514519844900,17.847844970703125,1.4528354406356812,7.30523681640625,-4.382620334625244
1712834514539844900,17.867844970703125,-1.5169563293457031,0.02311229705810547,17.060714721679688
1712834514559844900,17.887844970703124,-1.2746977806091309,-0.011186599731445312,16.970430374145508
1712834514579844600,17.9078447265625,-2.6192140579223633,1.4681625366210938,26.117422103881836
1712834514599844600,17.9278447265625,1.5378472805023193,2.440985679626465,5.1379547119140625
1712834514619844600,17.9478447265625,6.192689895629883,2.5029497146606445,3.1855883598327637
1712834514639844600,17.9678447265625,6.900364875793457,-1.0277719497680664,-1.1357719898223877
1712834514659844600,17.9878447265625,3.628180503845215,0.9267892837524414,-1.2512035369873047
1712834514679844600,18.0078447265625,0.16494813561439514,2.871805191040039,-1.6306511163711548
1712834514699844600,18.0278447265625,0.15314063429832458,2.857034683227539,-1.8677664995193481
1712834514719844600,18.0478447265625,-0.5856571197509766,1.1430320739746094,-2.508514404296875
1712834514739844600,18.0678447265625,0.31613314151763916,0.7925748825073242,-0.8456155061721802
1712834514759844600,18.0878447265625,0.6648657321929932,-0.2608165740966797,2.0922210216522217
1712834514779844600,18.1078447265625,0.9017622470855713,-0.18618297576904297,2.9372718334198
1712834514799844600,18.1278447265625,0.8108099102973938,-0.1862926483154297,2.8823330402374268
1712834514819844600,18.1478447265625,0.44431865215301514,-0.27442359924316406,2.2793025970458984
1712834514839844900,18.167844970703126,-0.15875306725502014,-0.606755256652832,1.1571446657180786
1712834514859844900,18.187844970703125,0.3685157597064972,-0.8427839279174805,1.2699389457702637
1712834514879844900,18.207844970703125,0.6210892796516418,-1.0059080123901367,1.2711400985717773
1712834514899844900,18.227844970703124,0.366197407245636,-1.0864849090576172,0.9236042499542236
1712834514919844900,18.247844970703124,-0.10331584513187408,-0.9864664077758789,0.5086150169372559
1712834514939844600,18.2678447265625,-0.10897915065288544,-0.9811601638793945,0.6335156559944153
1712834514959844600,18.2878447265625,0.13010242581367493,-1.7145156860351562,0.8041341304779053
1712834514979844900,18.307844970703126,0.12787702679634094,-1.7066497802734375,0.92256760597229
1712834514999844900,18.327844970703126,0.44686824083328247,-2.104562282562256,1.2816051244735718
1712834515019844900,18.347844970703125,-0.5111634731292725,0.6306753158569336,1.2641990184783936
1712834515039844900,18.367844970703125,-1.1270973682403564,4.0570478439331055,1.2242416143417358
1712834515059844900,18.387844970703124,-1.1171306371688843,5.616903305053711,2.983654022216797
1712834515079844600,18.4078447265625,2.2953171730041504,3.972431182861328,6.3325514793396
1712834515099844600,18.4278447265625,4.7050395011901855,2.832700729370117,9.42155933380127
1712834515119844600,18.4478447265625,4.512687683105469,2.8303041458129883,9.295305252075195
1712834515139844600,18.4678447265625,1.8735651969909668,3.4254884719848633,7.156549453735352
1712834515159844600,18.4878447265625,-1.3411266803741455,4.239238739013672,2.5546891689300537
1712834515179844600,18.5078447265625,-6.270902633666992,5.31557559967041,-4.40212869644165
1712834515199844600,18.5278447265625,1.4364558458328247,4.991538047790527,-6.69328498840332
1712834515219844600,18.5478447265625,6.912437438964844,0.02730560302734375,-2.729710102081299
1712834515239844600,18.5678447265625,-0.06754469871520996,-4.590162754058838,-2.6958911418914795
1712834515259844600,18.5878447265625,-4.548435688018799,-3.1762633323669434,-4.948354721069336
1712834515279844600,18.6078447265625,-4.665186882019043,-3.1075844764709473,-4.753067493438721
1712834515299844600,18.6278447265625,-8.766609191894531,-1.1182713508605957,-8.439310073852539
1712834515319844600,18.6478447265625,-7.257806777954102,-3.0021800994873047,2.354370355606079
1712834515339844900,18.667844970703126,-5.546224117279053,-4.301616191864014,5.886069297790527
1712834515359844900,18.687844970703125,-5.603480339050293,-4.291813373565674,5.7793989181518555
1712834515379844900,18.707844970703125,-6.472521781921387,-4.792457580566406,1.7539589405059814
1712834515399844900,18.727844970703124,-7.52364444732666,-3.074007987976074,-0.433193564414978
1712834515419844900,18.747844970703124,-7.178183555603027,-3.1951255798339844,-0.38790714740753174
1712834515439844600,18.7678447265625,-6.137668609619141,-2.2303733825683594,-2.4253077507019043
1712834515459844600,18.7878447265625,-4.003879547119141,-1.0896282196044922,-4.308525085449219
1712834515479844900,18.807844970703126,-0.3391474485397339,2.8640050888061523,-6.099617004394531
1712834515499844900,18.827844970703126,0.9143270254135132,6.413538932800293,-7.370791435241699
1712834515519844900,18.847844970703125,1.2557913064956665,6.375409126281738,-7.32206392288208
1712834515539844900,18.867844970703125,-1.1437792778015137,3.356839179992676,2.542297601699829
1712834515559844900,18.887844970703124,-1.4289109706878662,2.140745162963867,12.860695838928223
1712834515579844600,18.9078447265625,-2.948192596435547,-1.0898637771606445,19.7967529296875
1712834515599844600,18.9278447265625,-2.554227590560913,-1.1165504455566406,19.724145889282227
1712834515619844600,18.9478447265625,0.1981954425573349,1.2576942443847656,4.394667625427246
1712834515639844600,18.9678447265625,0.4278767704963684,1.2604494094848633,4.3562331199646
1712834515659844600,18.9878447265625,6.632095813751221,2.4044904708862305,0.6885837316513062
1712834515679844600,19.0078447265625,6.6688666343688965,2.4020185470581055,0.636247992515564
1712834515699844600,19.0278447265625,4.941286087036133,-0.6607265472412109,-2.765012741088867
1712834515719844600,19.0478447265625,0.7699989080429077,2.4881811141967773,-3.9550492763519287
1712834515739844600,19.0678447265625,-0.394228458404541,-0.2955055236816406,-2.6819329261779785
1712834515759844600,19.0878447265625,0.28784239292144775,0.5931015014648438,0.0797194316983223
1712834515779844600,19.1078447265625,0.478338360786438,1.0640287399291992,1.9851340055465698
1712834515799844600,19.1278447265625,0.45806264877319336,-0.24347400665283203,2.7319912910461426
1712834515819844600,19.1478447265625,0.1679559350013733,-0.9524660110473633,3.0325076580047607
1712834515839844900,19.167844970703126,-0.05626768618822098,-0.4947013854980469,2.9752197265625
1712834515859844900,19.187844970703125,-0.6137855052947998,-0.7144479751586914,2.856623411178589
1712834515879844900,19.207844970703125,-0.5947105288505554,-1.4439697265625,2.9287946224212646
1712834515899844900,19.227844970703124,-0.05237388610839844,-1.9956879615783691,2.620789051055908
1712834515919844900,19.247844970703124,0.25514450669288635,-1.9336605072021484,1.839644193649292
1712834515939844600,19.2678447265625,-0.07795563340187073,-1.670191764831543,0.9893199801445007
1712834515959844600,19.2878447265625,-0.25345146656036377,-1.7252674102783203,0.2974918484687805
1712834515979844900,19.307844970703126,-0.2765725255012512,-1.7229957580566406,0.3675181269645691
1712834515999844900,19.327844970703126,-0.34243062138557434,-1.828108787536621,0.09420973062515259
1712834516019844900,19.347844970703125,-0.30131375789642334,-1.6972999572753906,-0.08480563759803772
1712834516039844900,19.367844970703125,-0.23974385857582092,-0.4651327133178711,-0.7275818586349487
1712834516059844900,19.387844970703124,-0.23942995071411133,-0.4558553695678711,-0.5730562210083008
1712834516079844600,19.4078447265625,-0.37904784083366394,0.31774330139160156,-0.2721633315086365
1712834516099844600,19.4278447265625,-0.38055986166000366,6.386003494262695,2.830582857131958
1712834516119844600,19.4478447265625,2.4939470291137695,4.539519309997559,5.713959693908691
1712834516139844600,19.4678447265625,2.3527989387512207,4.55101203918457,5.733684539794922
1712834516159844600,19.4878447265625,4.92018461227417,2.4496726989746094,8.552532196044922
1712834516179844600,19.5078447265625,3.9144368171691895,2.21136474609375,7.16862154006958
1712834516199844600,19.5278447265625,0.8110653162002563,3.695406913757324,3.212973117828369
1712834516219844600,19.5478447265625,-1.946220874786377,4.994511604309082,-0.8148079514503479
1712834516239844600,19.5678447265625,-4.777315616607666,3.951907157897949,-5.563498497009277
1712834516259844600,19.5878447265625,-5.2141876220703125,4.0521135330200195,-5.57474946975708
1712834516279844600,19.6078447265625,7.058912754058838,2.1576223373413086,2.141547918319702
1712834516299844600,19.6278447265625,6.4235053062438965,2.3997716903686523,2.3171911239624023
1712834516319844600,19.6478447265625,-6.699167251586914,-2.8621506690979004,-5.01971435546875
1712834516339844900,19.667844970703126,-8.999385833740234,-1.0874266624450684,-7.116815567016602
1712834516359844900,19.687844970703125,-9.244817733764648,-1.3288745880126953,-4.915746688842773
1712834516379844900,19.707844970703125,-7.684812068939209,-3.005434513092041,0.5893545150756836
1712834516399844900,19.727844970703124,-7.928983211517334,-2.9017586708068848,0.39362847805023193
1712834516419844900,19.747844970703124,-5.040188789367676,-3.0702505111694336,4.920623302459717
1712834516439844600,19.7678447265625,-4.983392715454102,-3.613260269165039,3.8866395950317383
1712834516459844600,19.7878447265625,-4.827847957611084,-3.690840721130371,3.9755430221557617
1712834516479844900,19.807844970703126,-7.729436874389648,-2.537606716156006,-0.711103081703186
1712834516499844900,19.827844970703126,-7.294316291809082,-1.2619538307189941,-2.4314699172973633
1712834516519844900,19.847844970703125,-4.965274810791016,-0.06092548370361328,-3.2711434364318848
1712834516539844900,19.867844970703125,-2.273435592651367,1.7140073776245117,-4.252182960510254
1712834516559844900,19.887844970703124,-0.9473139047622681,3.4483413696289062,-6.219028472900391
1712834516579844600,19.9078447265625,-0.4302431344985962,3.3073816299438477,-6.309519290924072
1712834516599844600,19.9278447265625,0.09634923934936523,6.4594526290893555,-7.615899562835693
1712834516619844600,19.9478447265625,0.422806978225708,5.168735504150391,-1.368852972984314
1712834516639844600,19.9678447265625,-1.6982660293579102,3.1837072372436523,8.142536163330078
1712834516659844600,19.9878447265625,-1.6396937370300293,3.175107002258301,8.131338119506836
1712834516679844600,20.0078447265625,-3.614940643310547,1.6160030364990234,19.08712387084961
1712834516699844600,20.0278447265625,-3.2284226417541504,1.6045265197753906,19.156429290771484
1712834516719844600,20.0478447265625,-1.5103492736816406,0.8666753768920898,7.684194087982178
1712834516739844600,20.0678447265625,8.278099060058594,-1.7906665802001953,4.33453893661499
1712834516759844600,20.0878447265625,8.407313346862793,-1.7926044464111328,4.322059631347656
1712834516779844600,20.1078447265625,1.1030335426330566,2.5022754669189453,-1.403327226638794
1712834516799844600,20.1278447265625,-1.0705336332321167,4.231680870056152,-3.2034568786621094
1712834516819844600,20.1478447265625,-0.16402602195739746,1.0632047653198242,-4.292666912078857
1712834516839844900,20.167844970703126,-0.28533244132995605,1.0470476150512695,-4.4067182540893555
1712834516859844900,20.187844970703125,-0.5625203847885132,1.2268400192260742,0.5623290538787842
1712834516879844900,20.207844970703125,-0.4702553153038025,0.020366668701171875,1.7350997924804688
1712834516899844900,20.227844970703124,0.2869735360145569,-0.3007049560546875,3.4879724979400635
1712834516919844900,20.247844970703124,0.5275201797485352,-0.25034523010253906,4.434173107147217
1712834516939844900,20.267844970703123,0.22341495752334595,-0.4782886505126953,4.071558952331543
1712834516959844900,20.287844970703127,0.17546939849853516,-0.47716808319091797,4.065125942230225
1712834516979845000,20.30784521484375,-0.3835996687412262,-0.9019241333007812,2.669252634048462
1712834516999845000,20.32784521484375,-0.3361905515193939,-1.2358331680297852,2.1355905532836914
1712834517019845000,20.34784521484375,-0.052061617374420166,-1.5072574615478516,1.2107670307159424
1712834517039844000,20.367843994140625,0.028515905141830444,-1.7513608932495117,0.3328913748264313
1712834517059844400,20.38784423828125,0.037561237812042236,-1.74639892578125,0.39615973830223083
1712834517079844000,20.407843994140624,0.0772010087966919,-2.11177921295166,-0.3428265452384949
1712834517099844000,20.427843994140623,-0.1535831093788147,-2.297657012939453,-0.9035604000091553
1712834517119844000,20.447843994140626,-0.4029499590396881,-0.04834175109863281,-0.6991796493530273
1712834517139843800,20.46784375,-1.1960910558700562,3.966327667236328,0.18785309791564941
1712834517159843800,20.48784375,-1.231142282485962,3.9792327880859375,0.27372729778289795
1712834517179843800,20.50784375,-0.12564343214035034,6.664271354675293,3.2898221015930176
1712834517199843800,20.52784375,2.9124295711517334,5.652716636657715,6.333669185638428
1712834517219843800,20.54784375,4.574640274047852,2.814377784729004,8.899020195007324
1712834517239843300,20.56784326171875,4.384106636047363,2.81850528717041,8.783733367919922
1712834517259843000,20.587843017578123,-0.48308104276657104,4.2175140380859375,3.042938470840454
1712834517279843000,20.607843017578126,-4.220893383026123,4.677249908447266,-0.6551055312156677
1712834517299843000,20.627843017578126,-2.353123664855957,4.612398147583008,-1.3324809074401855
1712834517319843000,20.647843017578126,5.330385208129883,4.513339042663574,3.4430243968963623
1712834517339843000,20.667843017578125,2.6773319244384766,0.1977376937866211,-0.013991683721542358
1712834517359843000,20.687843017578125,-3.933328628540039,-1.266885757446289,-4.622195720672607
1712834517379843000,20.707843017578124,-7.268313884735107,-1.2739839553833008,-7.211329936981201
1712834517399843000,20.727843017578124,-7.495759010314941,-1.1581964492797852,-7.067551136016846
1712834517419843000,20.747843017578123,-8.394844055175781,-2.1130247116088867,-8.384122848510742
1712834517439842800,20.7678427734375,-5.922060966491699,-4.270676612854004,-0.2833036780357361
1712834517459842800,20.7878427734375,-5.241847038269043,-4.700760364532471,1.8166452646255493
1712834517479843000,20.807843017578126,-5.243625640869141,-4.573043346405029,1.716022253036499
1712834517499843000,20.827843017578125,-5.427996635437012,-3.879058837890625,0.8014012575149536
1712834517519843000,20.847843017578125,-5.5359625816345215,-3.267876625061035,-0.6147215962409973
1712834517539843000,20.867843017578124,-5.283026218414307,-3.363502025604248,-1.8044027090072632
1712834517559843000,20.887843017578124,-4.995028018951416,-3.480186939239502,-1.662665843963623
1712834517579842800,20.9078427734375,-4.193069934844971,-0.9250116348266602,-3.1128642559051514
1712834517599842800,20.9278427734375,-3.7299904823303223,-1.1037664413452148,-3.154043674468994
1712834517619842800,20.9478427734375,-2.7447965145111084,1.107285499572754,-5.19382381439209
1712834517639843800,20.96784375,-2.136976957321167,5.922635078430176,-4.1746931076049805
1712834517659843300,20.98784326171875,-0.11209321022033691,6.875500679016113,-2.334240674972534
1712834517679843300,21.00784326171875,1.4815295934677124,4.909234046936035,0.47098028659820557
1712834517699843300,21.02784326171875,1.0704721212387085,3.410917282104492,5.134052753448486
1712834517719843300,21.04784326171875,-2.1177430152893066,0.8250894546508789,8.669365882873535
1712834517739843800,21.06784375,-1.8819862604141235,0.8181238174438477,8.785625457763672
1712834517759843800,21.08784375,-4.742489337921143,1.6519794464111328,13.804729461669922
1712834517779843800,21.10784375,-3.134493827819824,3.5126209259033203,10.347764015197754
1712834517799843800,21.12784375,5.6189446449279785,2.0232772827148438,6.133461952209473
1712834517819843800,21.14784375,8.079066276550293,0.6144237518310547,4.8837785720825195
1712834517839844400,21.16784423828125,8.149014472961426,0.6212120056152344,4.914897918701172
1712834517859844900,21.187844970703125,5.433016777038574,-0.7255039215087891,2.3061091899871826
1712834517879844900,21.207844970703125,2.7515580654144287,1.7645673751831055,0.8471417427062988
1712834517899844900,21.227844970703124,-0.2542031407356262,1.2415285110473633,-1.1069291830062866
1712834517919844900,21.247844970703124,-0.0795794278383255,0.5208406448364258,1.0392332077026367
1712834517939844600,21.2678447265625,-0.522545337677002,0.9878921508789062,2.1574761867523193
1712834517959844600,21.2878447265625,-0.06907134503126144,0.43071746826171875,2.2383906841278076
1712834517979844900,21.307844970703126,0.5117418766021729,-0.02836132049560547,2.8320388793945312
1712834517999844900,21.327844970703126,0.5035380125045776,-0.03588104248046875,3.1583731174468994
1712834518019844900,21.347844970703125,0.4669640064239502,-0.6043767929077148,3.06162166595459
1712834518039844900,21.367844970703125,0.4592173397541046,-1.1289424896240234,2.8845877647399902
1712834518059844900,21.387844970703124,0.4179747998714447,-1.132004737854004,2.8354711532592773
1712834518079844600,21.4078447265625,0.18086892366409302,-1.317490577697754,1.4569244384765625
1712834518099844600,21.4278447265625,-0.13367605209350586,-1.4478988647460938,0.3768225908279419
1712834518119844600,21.4478447265625,-0.15912717580795288,-1.4442882537841797,0.4037918448448181
1712834518139844600,21.4678447265625,-0.48967504501342773,-2.7149391174316406,-0.7811453938484192
1712834518159844600,21.4878447265625,-0.5065198540687561,-2.7079248428344727,-0.719377875328064
1712834518179844600,21.5078447265625,0.007602512836456299,-2.8622236251831055,-0.7846109867095947
1712834518199844600,21.5278447265625,0.33288443088531494,-0.8364143371582031,-0.6521764993667603
1712834518219844600,21.5478447265625,0.34595271944999695,-0.8274307250976562,-0.5740408897399902
1712834518239844600,21.5678447265625,-0.17624995112419128,5.781728744506836,1.19086754322052
1712834518259844600,21.5878447265625,1.0619508028030396,4.9575395584106445,4.572794437408447
1712834518279844600,21.6078447265625,3.5038604736328125,3.7166223526000977,9.016413688659668
1712834518299844600,21.6278447265625,3.3156418800354004,3.7332096099853516,9.026885986328125
1712834518319844600,21.6478447265625,4.584695816040039,3.682218551635742,11.588130950927734
1712834518339844900,21.667844970703126,-0.27599191665649414,6.042503356933594,6.441208839416504
1712834518359844900,21.687844970703125,-2.2911176681518555,6.990521430969238,1.0643337965011597
1712834518379844900,21.707844970703125,-6.309650421142578,5.697140693664551,-3.589381217956543
1712834518399844900,21.727844970703124,-6.578019142150879,5.736565589904785,-3.7022597789764404
1712834518419844900,21.747844970703124,6.118258953094482,2.2157669067382812,2.473731756210327
1712834518439844600,21.7678447265625,3.8573215007781982,-1.973334789276123,-0.3270649313926697
1712834518459844600,21.7878447265625,-2.4811367988586426,-3.2040114402770996,-6.329697132110596
1712834518479844900,21.807844970703126,-8.266103744506836,-3.989572048187256,-10.656733512878418
1712834518499844900,21.827844970703126,-10.307575225830078,-4.318171501159668,-9.728282928466797
1712834518519844900,21.847844970703125,-8.211111068725586,-4.474494934082031,-2.9010181427001953
1712834518539844900,21.867844970703125,-5.526578903198242,-5.387014389038086,1.9778709411621094
1712834518559844900,21.887844970703124,-4.258893966674805,-5.766088485717773,3.4816181659698486
1712834518579844600,21.9078447265625,-4.892369270324707,-5.412374973297119,1.6989028453826904
1712834518599844600,21.9278447265625,-5.815433025360107,-4.414735794067383,-0.28542494773864746
1712834518619844600,21.9478447265625,-6.220107555389404,-3.134615898132324,-1.3664432764053345
1712834518639844600,21.9678447265625,-5.3760271072387695,-1.917281150817871,-2.3636865615844727
1712834518659844600,21.9878447265625,-4.269162178039551,0.16573810577392578,-3.8261916637420654
1712834518679844600,22.0078447265625,-4.639786720275879,1.7404460906982422,-4.537044525146484
1712834518699844600,22.0278447265625,-4.1677703857421875,1.9930152893066406,-4.724307537078857
1712834518719844600,22.0478447265625,-3.759782314300537,1.9129133224487305,-4.7561259269714355
1712834518739844600,22.0678447265625,-0.9004581570625305,8.403584480285645,-2.0200719833374023
1712834518759844600,22.0878447265625,2.3659517765045166,7.187912940979004,4.100366592407227
1712834518779844600,22.1078447265625,4.263524532318115,2.156670570373535,13.79271125793457
1712834518799844600,22.1278447265625,-1.5819039344787598,-1.5859899520874023,15.578526496887207
1712834518819844600,22.1478447265625,-6.924705982208252,4.346759796142578,15.614201545715332
1712834518839844900,22.167844970703126,-6.5146484375,4.346438407897949,15.700643539428711
1712834518859844900,22.187844970703125,4.916568279266357,3.354283332824707,4.8432488441467285
1712834518879844900,22.207844970703125,8.948821067810059,0.4716472625732422,6.294225692749023
1712834518899844900,22.227844970703124,5.783952713012695,-2.4000353813171387,1.4558789730072021
1712834518919844900,22.247844970703124,5.949428558349609,-2.4328131675720215,1.2441399097442627
1712834518939844600,22.2678447265625,-0.1980959177017212,2.8278722763061523,-1.2978222370147705
1712834518959844600,22.2878447265625,0.11073729395866394,-0.04533958435058594,-1.2646163702011108
1712834518979844900,22.307844970703126,-0.08336159586906433,-0.07293319702148438,-1.4589834213256836
1712834518999844900,22.327844970703126,0.4306657910346985,-0.1604909896850586,-0.13724106550216675
1712834519019844900,22.347844970703125,0.1984606832265854,-0.05405139923095703,1.6422241926193237
1712834519039844900,22.367844970703125,0.40456193685531616,-0.6527805328369141,2.7885541915893555
1712834519059844900,22.387844970703124,0.2997887134552002,-0.7131481170654297,3.508465051651001
1712834519079844600,22.4078447265625,-0.31354135274887085,-0.3496551513671875,3.2109923362731934
1712834519099844600,22.4278447265625,-0.3735957145690918,-0.34809017181396484,3.162325143814087
1712834519119844600,22.4478447265625,-0.5959382057189941,-0.019445419311523438,2.031858444213867
1712834519139844600,22.4678447265625,-0.36792510747909546,-0.4176034927368164,1.3824416399002075
1712834519159844600,22.4878447265625,0.39088886976242065,-1.5117263793945312,1.3033528327941895
1712834519179844600,22.5078447265625,0.3212565779685974,-2.135453701019287,0.3215767741203308
1712834519199844600,22.5278447265625,-0.12410056591033936,-2.8036623001098633,-0.5108131170272827
1712834519219844600,22.5478447265625,-0.14065402746200562,-3.183478832244873,-0.9124851822853088
1712834519239844600,22.5678447265625,-0.2006748914718628,-2.8252782821655273,-0.7936387062072754
1712834519259844600,22.5878447265625,-0.08872610330581665,-1.4804315567016602,-0.7901029586791992
1712834519279844600,22.6078447265625,-0.770628809928894,2.2541027069091797,-0.5226885080337524
1712834519299844600,22.6278447265625,-1.0377836227416992,5.662911415100098,1.4237205982208252
1712834519319844600,22.6478447265625,-1.0948916673660278,5.679568290710449,1.5284452438354492
1712834519339844900,22.667844970703126,4.72080135345459,2.5172510147094727,7.972248554229736
1712834519359844900,22.687844970703125,4.527412414550781,2.5379981994628906,7.981278896331787
1712834519379844900,22.707844970703125,5.08911657333374,2.20418643951416,9.465649604797363
1712834519399844900,22.727844970703124,1.58706796169281,4.516552925109863,6.13893985748291
1712834519419844900,22.747844970703124,-0.4649845361709595,5.265310287475586,3.709980010986328
1712834519439844600,22.7678447265625,-2.5239787101745605,5.5367231369018555,-0.18273687362670898
1712834519459844600,22.7878447265625,-5.2253947257995605,5.018816947937012,-5.521576881408691
1712834519479844900,22.807844970703126,-0.2478334903717041,2.8136510848999023,-4.918010711669922
1712834519499844900,22.827844970703126,6.534829139709473,1.05426025390625,2.1345205307006836
1712834519519844900,22.847844970703125,6.063492774963379,1.2399234771728516,2.2210941314697266
1712834519539844900,22.867844970703125,-6.6867780685424805,-1.9605860710144043,-3.724561929702759
1712834519559844900,22.887844970703124,-6.82016658782959,-1.861875057220459,-3.468400478363037
1712834519579844600,22.9078447265625,-9.743400573730469,-2.511035442352295,-8.090599060058594
1712834519599844600,22.9278447265625,-7.244176864624023,-3.561951160430908,-0.2654857635498047
1712834519619844600,22.9478447265625,-4.792471885681152,-4.884197235107422,2.530467987060547
1712834519639844600,22.9678447265625,-3.9489963054656982,-5.779545783996582,2.591350555419922
1712834519659844600,22.9878447265625,-4.909752368927002,-4.740345478057861,1.921656608581543
1712834519679844600,23.0078447265625,-6.287105560302734,-3.6001529693603516,-0.06236088275909424
1712834519699844600,23.0278447265625,-5.987583637237549,-3.7287330627441406,0.0486377477645874
1712834519719844600,23.0478447265625,-5.929561614990234,-2.057450771331787,-2.703204393386841
1712834519739844600,23.0678447265625,-5.476914405822754,-2.2286696434020996,-2.703310966491699
1712834519759844600,23.0878447265625,-2.7387917041778564,-0.11089420318603516,-3.433032989501953
1712834519779844600,23.1078447265625,-1.5570822954177856,0.5990047454833984,-4.937497615814209
1712834519799844600,23.1278447265625,-1.7238341569900513,8.144674301147461,-4.180023193359375
1712834519819844600,23.1478447265625,-1.2277122735977173,8.087340354919434,-4.073485851287842
1712834519839844900,23.167844970703126,0.7369495034217834,5.361395835876465,3.024843692779541
1712834519859844900,23.187844970703125,0.8616299629211426,5.374361038208008,3.166057586669922
1712834519879844900,23.207844970703125,0.3121033310890198,2.726120948791504,10.232378005981445
1712834519899844900,23.227844970703124,-2.683664083480835,3.1729183197021484,17.37141990661621
1712834519919844900,23.247844970703124,1.3616905212402344,2.433896064758301,6.296500205993652
1712834519939844600,23.2678447265625,5.645138740539551,3.0915040969848633,4.758215427398682
1712834519959844600,23.2878447265625,7.854924201965332,1.711355209350586,1.6027593612670898
1712834519979844900,23.307844970703126,5.452539443969727,0.39730262756347656,-0.14907002449035645
1712834519999844900,23.327844970703126,1.6469515562057495,2.655414581298828,-0.8570272922515869
1712834520019844900,23.347844970703125,-0.7103995084762573,1.6952333450317383,-2.051395893096924
1712834520039844900,23.367844970703125,-0.7823164463043213,1.6696243286132812,-2.210315227508545
1712834520059844900,23.387844970703124,-0.7763947248458862,0.24947834014892578,-1.5947462320327759
1712834520079844600,23.4078447265625,-0.5522191524505615,0.3549995422363281,0.909142017364502
1712834520099844600,23.4278447265625,-0.0503818541765213,-0.4350299835205078,2.0648353099823
1712834520119844600,23.4478447265625,0.49911126494407654,-0.9974966049194336,3.605271339416504
1712834520139844600,23.4678447265625,0.37593454122543335,-1.0032625198364258,3.5364363193511963
1712834520159844600,23.4878447265625,-0.05164981633424759,-0.5834293365478516,3.5336761474609375
1712834520179844600,23.5078447265625,-0.11285174638032913,-0.5852851867675781,3.4912707805633545
1712834520199844600,23.5278447265625,-0.3210992217063904,-0.6453571319580078,2.540828227996826
1712834520219844600,23.5478447265625,0.11346372961997986,-1.2238130569458008,1.8417613506317139
1712834520239844600,23.5678447265625,0.17690831422805786,-1.819915771484375,0.7824243903160095
1712834520259844600,23.5878447265625,0.1503334641456604,-1.8159866333007812,0.825181245803833
1712834520279844600,23.6078447265625,-0.2713960111141205,-2.5123229026794434,0.19183868169784546
1712834520299844600,23.6278447265625,-0.281718373298645,-3.308292865753174,-0.18167781829833984
1712834520319844600,23.6478447265625,-0.37382689118385315,-2.100027561187744,-0.42338794469833374
1712834520339844900,23.667844970703126,-0.8498093485832214,0.6524686813354492,-0.26870912313461304
1712834520359844900,23.687844970703125,-0.8801764249801636,0.6595134735107422,-0.21246373653411865
1712834520379844900,23.707844970703125,-1.2923450469970703,4.356910705566406,1.6141636371612549
1712834520399844900,23.727844970703124,1.1269810199737549,5.603878974914551,4.1882219314575195
1712834520419844900,23.747844970703124,5.072438716888428,3.412421226501465,9.669971466064453
1712834520439844600,23.7678447265625,4.855848789215088,3.421133041381836,9.552364349365234
1712834520459844600,23.7878447265625,1.459457278251648,4.795845985412598,6.849872589111328
1712834520479844900,23.807844970703126,-0.798883855342865,5.335349082946777,2.50130033493042
1712834520499844900,23.827844970703126,-1.154773235321045,5.395478248596191,2.4267725944519043
1712834520519844900,23.847844970703125,-4.15939998626709,4.959409713745117,-3.9352476596832275
1712834520539844900,23.867844970703125,5.348973274230957,0.610630989074707,-3.4870967864990234
1712834520559844900,23.887844970703124,4.776100158691406,0.8402013778686523,-3.2311644554138184
1712834520579844600,23.9078447265625,-6.934053421020508,-2.0351696014404297,-6.379883766174316
1712834520599844600,23.9278447265625,-7.182984828948975,-1.8948402404785156,-6.21825647354126
1712834520619844600,23.9478447265625,-8.735854148864746,-1.6242718696594238,-4.064413547515869
1712834520639844600,23.9678447265625,-9.029516220092773,-1.4904723167419434,-4.217157363891602
1712834520659844600,23.9878447265625,-5.336635589599609,-2.038515090942383,2.3294320106506348
1712834520679844600,24.0078447265625,-5.165683746337891,-3.4464993476867676,4.8619608879089355
1712834520699844600,24.0278447265625,-5.151688575744629,-3.440347194671631,4.971067428588867
1712834520719844600,24.0478447265625,-6.61690616607666,-1.390601634979248,0.6250233054161072
1712834520739844600,24.0678447265625,-6.138443470001221,-1.4690446853637695,0.18363583087921143
1712834520759844600,24.0878447265625,-5.728723526000977,-1.490312099456787,0.4526768922805786
1712834520779844600,24.1078447265625,-3.744532823562622,-0.757504940032959,0.11245560646057129
1712834520799844600,24.1278447265625,-1.5704216957092285,0.5566835403442383,-1.8352447748184204
1712834520819844600,24.1478447265625,-1.030160903930664,0.33748340606689453,-1.9621978998184204
1712834520839844600,24.1678447265625,-1.3080699443817139,7.8889265060424805,-7.527399063110352
1712834520859844600,24.1878447265625,-1.9000734090805054,7.767238616943359,-4.077573299407959
1712834520879844600,24.2078447265625,-0.2725493907928467,3.4661684036254883,3.788341999053955
1712834520899844600,24.2278447265625,3.2843494415283203,2.2859268188476562,9.573563575744629
1712834520919844600,24.2478447265625,3.4689292907714844,2.260502815246582,9.588083267211914
1712834520939844600,24.2678447265625,0.8816443681716919,0.8296689987182617,9.426177978515625
1712834520959844600,24.2878447265625,-3.2566566467285156,0.8633241653442383,11.823749542236328
1712834520979844900,24.307844970703126,4.97026252746582,0.8084220886230469,6.055163383483887
1712834520999844900,24.327844970703126,5.089026927947998,0.7990007400512695,5.999301910400391
1712834521019844900,24.347844970703125,5.372326374053955,-0.5436649322509766,2.3249869346618652
1712834521039844900,24.367844970703125,3.1592650413513184,1.6603498458862305,-0.31342071294784546
1712834521059844900,24.387844970703124,1.8144547939300537,4.004430770874023,-2.5141983032226562
1712834521079844600,24.4078447265625,0.6623674631118774,1.4837255477905273,-3.4859275817871094
1712834521099844600,24.4278447265625,-0.04061009734869003,-0.9347610473632812,-1.566184639930725
1712834521119844600,24.4478447265625,-0.827843427658081,-1.2209033966064453,0.667867124080658
1712834521139844600,24.4678447265625,-0.8837332129478455,-0.7156286239624023,1.486274003982544
1712834521159844600,24.4878447265625,-0.9915021061897278,-0.7152023315429688,1.4527353048324585
1712834521179844600,24.5078447265625,0.4112628698348999,-0.8396434783935547,2.2652621269226074
1712834521199844600,24.5278447265625,0.30784881114959717,-0.8356094360351562,2.2620034217834473
1712834521220470800,24.548470703125,0.747120201587677,-1.4415092468261719,3.6247901916503906
1712834521240470800,24.568470703125,0.4842889904975891,-1.0946331024169922,2.7780649662017822
1712834521260470800,24.588470703125,0.1205095648765564,-0.44147491455078125,1.630765438079834
1712834521280470800,24.608470703125,-0.06771641969680786,-0.06317329406738281,0.9328975677490234
1712834521300470800,24.628470703125,0.01857858896255493,-0.5380640029907227,0.7565577626228333
1712834521320470800,24.648470703125,0.3636894226074219,-1.4658880233764648,0.8905144333839417
1712834521340471000,24.668470947265625,0.3425580859184265,-1.4558582305908203,0.9928013682365417
1712834521360471000,24.688470947265625,0.6799348592758179,-2.2270355224609375,0.8517851829528809
1712834521380471000,24.708470947265624,0.21771115064620972,-1.6829547882080078,0.9006664156913757
1712834521400471000,24.728470947265624,-0.08415007591247559,1.0088796615600586,0.44327855110168457
1712834521420471000,24.748470947265623,-0.030146658420562744,4.827388763427734,1.5149319171905518
1712834521440470800,24.768470703125,1.6103872060775757,4.776150703430176,3.2708840370178223
1712834521460470800,24.788470703125,1.4629722833633423,4.796909332275391,3.31272554397583
1712834521480471000,24.808470947265626,3.4225592613220215,3.049345016479492,5.518362045288086
1712834521500471000,24.828470947265625,3.1966171264648438,2.9448394775390625,7.140724182128906
1712834521520471000,24.848470947265625,1.5537433624267578,2.970004081726074,4.894027233123779
1712834521540471000,24.868470947265624,0.38032758235931396,3.0398120880126953,1.467630386352539
1712834521560471000,24.888470947265624,-2.354036331176758,3.717458724975586,-2.2702836990356445
1712834521580470800,24.908470703125,-0.8340878486633301,3.0853471755981445,-5.051591873168945
1712834521600470800,24.928470703125,-1.2548651695251465,3.235048294067383,-4.891471862792969
1712834521620470800,24.948470703125,5.7096052169799805,3.113201141357422,-2.4774227142333984
1712834521640470800,24.968470703125,1.6331820487976074,-0.9763092994689941,-1.8628249168395996
1712834521660470800,24.988470703125,-7.155014514923096,0.6346445083618164,-4.719983100891113
1712834521680470800,25.008470703125,-7.305938243865967,0.7614421844482422,-4.528557777404785
1712834521700470800,25.028470703125,-5.545958518981934,-3.2783303260803223,0.3451857566833496
1712834521720470800,25.048470703125,-5.1835150718688965,-3.10713529586792,3.637688636779785
1712834521740470800,25.068470703125,-5.796667575836182,-3.367495059967041,4.199162483215332
1712834521760470800,25.088470703125,-6.3723578453063965,-3.5195693969726562,2.875800371170044
1712834521780470800,25.108470703125,-6.496759414672852,-3.0193209648132324,1.6794384717941284
1712834521800470800,25.128470703125,-6.6613945960998535,-2.1799535751342773,1.1211161613464355
1712834521820470800,25.148470703125,-6.383903980255127,-2.313948631286621,1.168339490890503
1712834521840471000,25.168470947265625,-6.147554874420166,-1.7052345275878906,0.6716423034667969
1712834521860471000,25.188470947265625,-5.464262962341309,-2.078775405883789,0.09355998039245605
1712834521880471000,25.208470947265624,-3.846177577972412,-1.7238316535949707,-1.1021480560302734
1712834521900471000,25.228470947265624,-2.319615364074707,1.9250545501708984,-4.402828693389893
1712834521920471000,25.248470947265623,-1.8064476251602173,1.779855728149414,-4.506807327270508
1712834521940470800,25.268470703125,-0.8863804340362549,4.29893684387207,-4.462359428405762
1712834521960470800,25.288470703125,0.0018235445022583008,7.187844276428223,-2.3994364738464355
1712834521980471000,25.308470947265626,1.181941032409668,5.439284324645996,6.959869384765625
1712834522000471000,25.328470947265625,1.7901633977890015,2.795703887939453,14.270561218261719
1712834522020471000,25.348470947265625,1.8623125553131104,2.7959346771240234,14.300382614135742
