time,seconds_elapsed,z,y,x
1712834496740035000,0.06803515625,0.020005837082862854,0.04207334294915199,0.027718011289834976
1712834496762035000,0.090034912109375,0.008399397134780884,0.006643159314990044,0.011835514567792416
1712834496781843000,0.109843017578125,0.009010262787342072,0.0005345070967450738,0.014278975315392017
1712834496801843000,0.129843017578125,-0.003817907767370343,0.013973542489111423,0.02955060638487339
1712834496821843000,0.149843017578125,-0.01237002108246088,0.053068917244672775,0.042989641427993774
1712834496841843000,0.169843017578125,0.0029016099870204926,0.053068917244672775,0.04115704447031021
1712834496861843000,0.189843017578125,-0.0019853119738399982,0.0720057412981987,0.028939740732312202
1712834496881843000,0.209843017578125,-0.018478672951459885,0.09949467331171036,0.03321579843759537
1712834496901844700,0.2298447265625,-0.02519819140434265,0.10804679244756699,0.04604396969079971
1712834496921844700,0.2498447265625,-0.013591751456260681,0.043905939906835556,0.05887213721871376
1712834496941844700,0.2698447265625,-0.023976460099220276,0.008475755341351032,0.054596081376075745
1712834496961844700,0.2898447265625,-0.023365596309304237,0.0029779679607599974,0.0466548316180706
1712834496981844700,0.3098447265625,-0.022143865004181862,0.0188604649156332,0.0619264654815197
1712834497001844700,0.3298447265625,-0.0032070425804704428,0.056123245507478714,0.08513934165239334
1712834497021844700,0.3498447265625,0.003512475173920393,0.1373683214187622,0.11934779584407806
1712834497041844700,0.3698447265625,0.020616702735424042,0.28153252601623535,0.16088663041591644
1712834497061844700,0.3898447265625,0.07864890247583389,0.6529386043548584,0.20120373368263245
1712834497081844700,0.4098447265625,0.23319780826568604,1.0787116289138794,0.25618159770965576
1712834497101844700,0.4298447265625,0.2997821271419525,1.4452308416366577,0.2983313202857971
1712834497121844700,0.4498447265625,0.5099197626113892,1.6071101427078247,0.33864840865135193
1712834497141844700,0.4698447265625,1.4952454566955566,2.2033145427703857,0.31604641675949097
1712834497161844700,0.4898447265625,1.9020816087722778,3.0004937648773193,0.22624921798706055
1712834497181844700,0.5098447265625,1.8532124757766724,3.323641538619995,0.23052527010440826
1712834497201844700,0.5298447265625,1.3785701990127563,3.2827134132385254,0.2897791862487793
1712834497221844700,0.5498447265625,1.394452691078186,2.6162595748901367,0.2592359483242035
1712834497241844700,0.5698447265625,1.7035504579544067,1.81052827835083,0.11018481850624084
1712834497261844700,0.5898447265625,1.906968593597412,1.3920855522155762,0.13584116101264954
1712834497281844700,0.6098447265625,2.125047445297241,1.2082151174545288,0.2293035387992859
1712834497301844700,0.6298447265625,2.3687827587127686,1.2668581008911133,0.3032182455062866
1712834497321844700,0.6498447265625,2.6112961769104004,1.511815071105957,0.3759112060070038
1712834497341844700,0.6698447265625,2.806162118911743,1.9479728937149048,0.4455498456954956
1712834497361844700,0.6898447265625,2.9491047859191895,2.4201717376708984,0.46937358379364014
1712834497381844700,0.7098447265625,3.0749428272247314,2.848999261856079,0.49991685152053833
1712834497401845000,0.729844970703125,3.2197179794311523,3.0573041439056396,0.5035820603370667
1712834497421845000,0.749844970703125,3.324786901473999,3.024928331375122,0.4876995384693146
1712834497441845000,0.769844970703125,3.3815972805023193,2.765310525894165,0.3991240859031677
1712834497461845000,0.789844970703125,3.4213035106658936,2.5576164722442627,0.415617436170578
1712834497481845000,0.809844970703125,3.4133622646331787,2.4598779678344727,0.39851322770118713
1712834497501844700,0.8298447265625,3.288134813308716,2.228971004486084,0.3001639246940613
1712834497521844700,0.8498447265625,2.975982666015625,1.7830393314361572,0.1834886521100998
1712834497541844700,0.8698447265625,2.7316367626190186,1.3096187114715576,0.16149750351905823
1712834497561844700,0.8898447265625,2.5367705821990967,1.1581240892410278,0.26595544815063477
1712834497581844700,0.9098447265625,2.38405442237854,1.2210432291030884,0.3105486333370209
1712834497601844700,0.9298447265625,2.2716550827026367,1.27724289894104,0.2390773892402649
1712834497621844700,0.9498447265625,2.0138700008392334,1.2442561388015747,0.15966489911079407
1712834497641844700,0.9698447265625,1.7023286819458008,1.0689377784729004,0.16699528694152832
1712834497661844700,0.9898447265625,1.3199270963668823,0.9736428260803223,0.11018481850624084
1712834497681844700,1.0098447265625,1.126282811164856,0.9650907516479492,-0.10606148093938828
1712834497701844700,1.0298447265625,0.9882272481918335,0.837419867515564,-0.24350616335868835
1712834497721844700,1.0498447265625,0.8593347072601318,0.9595929384231567,-0.2661081850528717
1712834497741844700,1.0698447265625,0.8355109095573425,1.1110875606536865,-0.47074803709983826
1712834497761844700,1.0898447265625,0.8446739315986633,1.150182843208313,-0.6417902708053589
1712834497781844700,1.1098447265625,0.7304421067237854,1.2430343627929688,-0.7877870798110962
1712834497801844700,1.1298447265625,0.6669121384620667,1.0237337350845337,-0.8458192944526672
1712834497821844700,1.1498447265625,0.6272059082984924,0.5967389941215515,-0.8274933099746704
1712834497841844700,1.1698447265625,0.5227479338645935,0.22044599056243896,-0.8287150859832764
1712834497861844700,1.1898447265625,0.4072943925857544,0.02557998150587082,-0.9105709791183472
1712834497881844700,1.2098447265625,0.39996400475502014,-0.03306308016180992,-0.9227883219718933
1712834497901845000,1.229844970703125,0.36880987882614136,-0.0006872233934700489,-0.8989645838737488
1712834497921845000,1.249844970703125,0.2344195395708084,0.13003793358802795,-0.9105709791183472
1712834497941845000,1.269844970703125,0.17821992933750153,0.2748129963874817,-0.8983536958694458
1712834497961845000,1.289844970703125,0.16233743727207184,0.32246050238609314,-0.8788059949874878
1712834497981845000,1.309844970703125,0.02977968007326126,0.4006512463092804,-0.8097782135009766
1712834498001844700,1.3298447265625,-0.37888917326927185,0.2790890634059906,-0.6784422397613525
1712834498021844700,1.3498447265625,-0.5963571667671204,-0.020234910771250725,-0.6778313517570496
1712834498041844700,1.3698447265625,-0.7496843934059143,-0.18822285532951355,-0.5874232649803162
1712834498061844700,1.3898447265625,-0.9640980958938599,-0.3262783885002136,-0.42554399371147156
1712834498081844700,1.4098447265625,-1.1119275093078613,-0.6457608938217163,-0.2111303061246872
1712834498101844700,1.4298447265625,-1.0740537643432617,-0.871781051158905,0.05948300287127495
1712834498121844700,1.4498447265625,-0.898124635219574,-1.0092257261276245,0.25740334391593933
1712834498141844700,1.4698447265625,-0.8077165484428406,-1.1643855571746826,0.4907538592815399
1712834498161844700,1.4898447265625,-0.8559749126434326,-1.0861947536468506,0.7760279178619385
1712834498181844700,1.5098447265625,-0.8962920308113098,-0.7642687559127808,1.077795386314392
1712834498201844700,1.5298447265625,-0.8633053302764893,-0.5052618980407715,1.2714396715164185
1712834498221844700,1.5498447265625,-0.9201157689094543,-0.3427717685699463,1.3074806928634644
1712834498241844700,1.5698447265625,-1.1320860385894775,0.046960264444351196,1.5176182985305786
1712834498261844700,1.5898447265625,-1.2646437883377075,0.420809805393219,1.9721020460128784
1712834498281844700,1.6098447265625,-1.2536481618881226,0.4171445965766907,2.480952739715576
1712834498301844700,1.6298447265625,-1.0618364810943604,0.058566704392433167,2.7411813735961914
1712834498321844700,1.6498447265625,-1.0416779518127441,-0.5938373804092407,2.881680488586426
1712834498341844700,1.6698447265625,-1.2499829530715942,-1.78380286693573,3.242701768875122
1712834498361844700,1.6898447265625,-1.401477575302124,-3.2663729190826416,3.5597407817840576
1712834498381844700,1.7098447265625,-1.5096007585525513,-5.481369972229004,2.9678125381469727
1712834498401845000,1.729844970703125,-0.7154759168624878,-7.711639404296875,2.2555434703826904
1712834498421845000,1.749844970703125,-0.19562959671020508,-7.11054801940918,2.1914026737213135
1712834498441845000,1.769844970703125,0.04505131021142006,-4.48199462890625,2.3166301250457764
1712834498461845000,1.789844970703125,0.1189660057425499,-0.7862599492073059,2.226222038269043
1712834498481845000,1.809844970703125,0.5447390675544739,1.750052571296692,1.743638515472412
1712834498501844700,1.8298447265625,0.831845760345459,3.194748878479004,1.0124328136444092
1712834498521844700,1.8498447265625,1.1812607049942017,2.864881753921509,0.37835466861724854
1712834498541844700,1.8698447265625,1.4628695249557495,2.1972060203552246,0.12973250448703766
1712834498561844700,1.8898447265625,1.4280502796173096,0.9479864835739136,-0.15126550197601318
1712834498581844700,1.9098447265625,1.3394747972488403,-0.477772980928421,-0.5006804466247559
1712834498601844700,1.9298447265625,1.2466232776641846,-1.2560153007507324,-0.7303657531738281
1712834498621844700,1.9498447265625,1.0700831413269043,-1.3794100284576416,-0.7822893261909485
1712834498641844700,1.9698447265625,0.983951210975647,-1.1918745040893555,-0.8140543103218079
1712834498661844700,1.9898447265625,0.8764389157295227,-0.8766679763793945,-0.7609090209007263
1712834498681844700,2.0098447265625,0.651029646396637,-0.530307412147522,-0.6973790526390076
1712834498701844700,2.0298447265625,0.4024074673652649,-0.3024546504020691,-0.6497315168380737
1712834498721844700,2.0498447265625,0.14156801998615265,-0.12041681259870529,-0.5599343776702881
1712834498741844700,2.0698447265625,-0.168751522898674,0.05429064854979515,-0.4035528600215912
1712834498761844700,2.0898447265625,-0.41004329919815063,0.14653129875659943,-0.2819906771183014
1712834498781844700,2.1098447265625,-0.5902485251426697,0.25221097469329834,-0.18180876970291138
1712834498801844700,2.1298447265625,-0.7796167731285095,0.37743836641311646,-0.13355042040348053
1712834498821844700,2.1498447265625,-0.927446186542511,0.48311805725097656,-0.09201157838106155
1712834498841844700,2.1698447265625,-1.072221279144287,0.6187301278114319,-0.021762074902653694
1712834498861844700,2.1898447265625,-1.1998920440673828,0.610788881778717,0.02344195358455181
1712834498881844700,2.2098447265625,-1.297019600868225,0.621173620223999,-0.07246389240026474
1712834498901845000,2.229844970703125,-1.3807082176208496,0.533819854259491,-0.2312888503074646
1712834498921845000,2.249844970703125,-1.5279266834259033,0.582689106464386,-0.36629006266593933
1712834498941845000,2.269844970703125,-1.6354389190673828,0.7702246904373169,-0.2056325078010559
1712834498961845000,2.289844970703125,-1.6000088453292847,0.7317401766777039,0.008781188167631626
1712834498981845000,2.309844970703125,-1.4912748336791992,0.41103595495224,-0.026648996397852898
1712834499001844700,2.3298447265625,-1.4845552444458008,0.061621032655239105,0.05520694702863693
1712834499021844700,2.3498447265625,-1.5596916675567627,-0.4728860557079315,0.2183079719543457
1712834499041844700,2.3698447265625,-1.599397897720337,-1.223028540611267,0.32093334197998047
1712834499061844700,2.3898447265625,-1.2420417070388794,-1.34825599193573,0.18226692080497742
1712834499081844700,2.4098447265625,-0.5859724879264832,-1.1735484600067139,0.10285443812608719
1712834499101844700,2.4298447265625,0.027947084978222847,-0.4844925105571747,0.13584116101264954
1712834499121844700,2.4498447265625,0.4366159439086914,0.4250858426094055,0.11873693019151688
1712834499141844700,2.4698447265625,0.5306891798973083,0.9589820504188538,0.12301298975944519
1712834499161844700,2.4898447265625,0.5673410892486572,0.6902013421058655,0.04787656292319298
1712834499181844700,2.5098447265625,0.9008735418319702,0.011530081741511822,-0.21846067905426025
1712834499201844700,2.5298447265625,1.327257513999939,-1.0031170845031738,-1.03274405002594
1712834499221844700,2.5498447265625,1.3785701990127563,-0.10575604438781738,-0.7175375819206238
1712834499241844700,2.5698447265625,1.442100167274475,1.6315447092056274,-1.1799626350402832
1712834499261844700,2.5898447265625,1.1049025058746338,0.8239808678627014,-1.233718752861023
1712834499281844700,2.6098447265625,0.6351471543312073,-1.0153343677520752,-1.051069974899292
1712834499301844700,2.6298447265625,0.575893223285675,-2.595031976699829,-1.90689218044281
1712834499321844700,2.6498447265625,0.7774787545204163,-1.3629167079925537,-2.705904006958008
1712834499341844700,2.6698447265625,2.0340285301208496,1.077489972114563,-2.1720077991485596
1712834499361844700,2.6898447265625,4.002847194671631,3.943669557571411,-1.043739676475525
1712834499381844700,2.7098447265625,3.0108020305633545,5.6278252601623535,-1.2948052883148193
1712834499401845000,2.729844970703125,2.2093467712402344,8.27714729309082,-1.623450756072998
1712834499421845000,2.749844970703125,2.4249823093414307,6.555118560791016,-1.4554628133773804
1712834499441845000,2.769844970703125,2.967430591583252,4.4580183029174805,-1.7847192287445068
1712834499461845000,2.789844970703125,2.3162481784820557,3.583259105682373,-3.0730340480804443
1712834499481845000,2.809844970703125,1.5135713815689087,0.9913579225540161,-1.1830168962478638
1712834499501844700,2.8298447265625,0.7389942407608032,0.7793877124786377,0.44860416650772095
1712834499521844700,2.8498447265625,0.6840163469314575,-0.3568216562271118,0.3337614834308624
1712834499541844700,2.8698447265625,0.6101016402244568,-0.9426414370536804,0.4150065779685974
1712834499561844700,2.8898447265625,0.11713340878486633,0.18135061860084534,1.085736632347107
1712834499581844700,2.9098447265625,-0.03680463135242462,1.2589168548583984,1.8316030502319336
1712834499601844700,2.9298447265625,-0.15042556822299957,1.3071752786636353,2.9702558517456055
1712834499621844700,2.9498447265625,-0.42959097027778625,0.41775545477867126,3.613497018814087
1712834499641844700,2.9698447265625,-0.6281222105026245,-1.1313987970352173,3.8608975410461426
1712834499661844700,2.9898447265625,-0.8071057200431824,-3.086778402328491,3.596392869949341
1712834499681844700,3.0098447265625,-1.3868168592453003,-5.211978435516357,2.921997547149658
1712834499701844700,3.0298447265625,-1.9555323123931885,-7.320685386657715,1.9769890308380127
1712834499721844700,3.0498447265625,-2.101529121398926,-9.634642601013184,1.5029575824737549
1712834499741844700,3.0698447265625,-1.2066116333007812,-10.836825370788574,1.8493181467056274
1712834499761844700,3.0898447265625,0.31322115659713745,-7.594353199005127,1.2054661512374878
1712834499781844700,3.1098447265625,-0.574976921081543,-1.7043904066085815,1.1065059900283813
1712834499801844700,3.1298447265625,-0.21151208877563477,2.8673250675201416,1.0674107074737549
1712834499821844700,3.1498447265625,0.5716171264648438,5.229540824890137,0.8603273630142212
1712834499841844700,3.1698447265625,1.1476631164550781,4.287586688995361,0.10468703508377075
1712834499861844700,3.1898447265625,1.6840027570724487,2.197816848754883,-0.5550474524497986
1712834499881844700,3.2098447265625,1.39017653465271,0.0005345070967450738,-0.8140543103218079
1712834499901845000,3.229844970703125,1.0419833660125732,-1.1918745040893555,-1.0394635200500488
1712834499921845000,3.249844970703125,0.8361217975616455,-1.6286431550979614,-1.1176543235778809
1712834499941845000,3.269844970703125,0.5905539989471436,-1.4557682275772095,-1.1176543235778809
1712834499961845000,3.289844970703125,0.26374107599258423,-1.1216249465942383,-0.9960921406745911
1712834499981845000,3.309844970703125,0.026114489883184433,-0.8540659546852112,-0.7242571115493774
1712834500001844700,3.3298447265625,-0.1241583600640297,-0.6237697601318359,-0.4469242990016937
1712834500021844700,3.3498447265625,-0.3361285924911499,-0.4875468313694,-0.2563343346118927
1712834500041844700,3.3698447265625,-0.5786421298980713,-0.5425246953964233,-0.23800836503505707
1712834500061844700,3.3898447265625,-0.7484626173973083,-0.5058727860450745,-0.29359710216522217
1712834500081844700,3.4098447265625,-0.8614727258682251,-0.29451340436935425,-0.3107013404369354
1712834500101844700,3.4298447265625,-0.9305005073547363,0.11904236674308777,-0.23189972341060638
1712834500121844700,3.4498447265625,-0.9286679029464722,0.5808565020561218,-0.06146831437945366
1712834500141844700,3.4698447265625,-0.8749117255210876,0.857578456401825,0.08636107295751572
1712834500161844700,3.4898447265625,-0.868803083896637,0.8697957396507263,0.24762949347496033
1712834500181844700,3.5098447265625,-0.9695958495140076,0.705473005771637,0.3337614834308624
1712834500201844700,3.5298447265625,-1.1003210544586182,0.48495063185691833,0.3514765799045563
1712834500221844700,3.5498447265625,-1.114981770515442,0.15691600739955902,0.38873937726020813
1712834500241844700,3.5698447265625,-1.067945122718811,-0.21326832473278046,0.49441906809806824
1712834500261844700,3.5898447265625,-0.868803083896637,-0.2816852331161499,0.5683337450027466
1712834500281844700,3.6098447265625,-0.5151121020317078,-0.2157117873430252,0.18898643553256989
1712834500301844700,3.6298447265625,-0.1889100819826126,0.3859904706478119,-0.46158504486083984
1712834500321844700,3.6498447265625,0.28878653049468994,1.9046014547348022,-0.9912052154541016
1712834500341844700,3.6698447265625,1.2844969034194946,4.045684337615967,-0.8268824815750122
1712834500361844700,3.6898447265625,1.836719036102295,4.500778675079346,-0.48052188754081726
1712834500381844700,3.7098447265625,2.079232692718506,4.191070079803467,-0.3742313086986542
1712834500401845000,3.729844970703125,2.1726949214935303,3.7103190422058105,-0.6668357849121094
1712834500421845000,3.749844970703125,1.8764252662658691,3.440927505493164,-0.8641452193260193
1712834500441845000,3.769844970703125,1.6589572429656982,4.1171555519104,-1.1915689706802368
1712834500461845000,3.789844970703125,1.1812607049942017,5.327279567718506,-1.661324381828308
1712834500481845000,3.809844970703125,0.46899178624153137,5.372483253479004,-2.0638844966888428
1712834500501844700,3.8298447265625,0.07987063378095627,4.239939212799072,-1.6350572109222412
1712834500521844700,3.8498447265625,-0.31352660059928894,2.2216405868530273,-1.0596221685409546
1712834500541844700,3.8698447265625,-0.4717406928539276,0.1886810064315796,-0.9557750225067139
1712834500561844700,3.8898447265625,-0.6843217611312866,-1.127733588218689,-0.9759336113929749
1712834500581844700,3.9098447265625,-0.7863363027572632,-1.0177778005599976,-0.5941427946090698
1712834500601844700,3.9298447265625,-0.8028296232223511,-0.43684500455856323,-0.010155634954571724
1712834500621844700,3.9498447265625,-0.7704538106918335,0.035353824496269226,0.6251442432403564
1712834500641844700,3.9698447265625,-0.5951354503631592,-0.07582364976406097,1.1211668252944946
1712834500661844700,3.9898447265625,-0.4271475374698639,-0.9377545118331909,1.482188105583191
1712834500681844700,4.0098447265625,-0.40026944875717163,-1.8461111783981323,1.8933004140853882
1712834500701844700,4.0298447265625,-0.3813326358795166,-2.7587437629699707,2.2549326419830322
1712834500721844700,4.0498447265625,-0.41859540343284607,-3.544316530227661,2.4088706970214844
1712834500741844700,4.0698447265625,-0.7545713186264038,-4.514370441436768,2.382603645324707
1712834500761844700,4.0898447265625,-1.5444200038909912,-5.283449649810791,2.148642063140869
1712834500781844700,4.1098447265625,-2.486985206604004,-5.828341484069824,1.853594183921814
1712834500801844700,4.1298447265625,-2.6232080459594727,-7.746458530426025,1.4546992778778076
1712834500821844700,4.1498447265625,-0.7790058851242065,-9.072647094726562,1.3019828796386719
1712834500841844700,4.1698447265625,0.06765332818031311,-6.689661502838135,1.7069865465164185
1712834500861844700,4.1898447265625,-0.12293662875890732,-3.0953304767608643,2.12298583984375
1712834500881844700,4.2098447265625,0.020005837082862854,0.06284276396036148,1.2586114406585693
1712834500901845000,4.229844970703125,0.669355571269989,2.469040870666504,0.31299206614494324
1712834500921845000,4.249844970703125,1.0309878587722778,4.236274242401123,0.13461942970752716
1712834500941845000,4.269844970703125,1.5050193071365356,5.064607620239258,0.33803755044937134
1712834500961845000,4.289844970703125,1.716989517211914,3.8886919021606445,0.315435528755188
1712834500981845000,4.309844970703125,1.497688889503479,0.7946593165397644,-0.363235741853714
1712834501001844700,4.3298447265625,1.1049025058746338,-1.5553392171859741,-0.8647561073303223
1712834501021844700,4.3498447265625,0.6614143252372742,-2.477134943008423,-0.8916341662406921
1712834501041844700,4.3698447265625,0.35475999116897583,-2.508289098739624,-0.7334200739860535
1712834501061844700,4.3898447265625,0.29306259751319885,-1.8137352466583252,-0.5935319662094116
1712834501081844700,4.4098447265625,0.37980547547340393,-0.7477754354476929,-0.4799109995365143
1712834501101844700,4.4298447265625,0.3724750876426697,0.23144157230854034,-0.3369685411453247
1712834501121844700,4.4498447265625,0.26251932978630066,0.989525318145752,-0.2160172164440155
1712834501141844700,4.4698447265625,0.144622340798378,1.3010666370391846,-0.14393512904644012
1712834501161844700,4.4898447265625,0.005345070734620094,0.9846383929252625,-0.13355042040348053
1712834501181844700,4.5098447265625,-0.08750644326210022,0.4171445965766907,-0.15126550197601318
1712834501201844700,4.5298447265625,-0.13271047174930573,-0.03306308016180992,-0.1451568603515625
1712834501221844700,4.5498447265625,-0.18585574626922607,-0.25358542799949646,-0.12072224169969559
1712834501241844700,4.5698447265625,-0.26893341541290283,-0.16806429624557495,-0.09689849615097046
1712834501261844700,4.5898447265625,-0.3471241891384125,0.13920091092586517,-0.09812022745609283
1712834501281844700,4.6098447265625,-0.4772384762763977,0.6932557225227356,-0.08590292185544968
1712834501301844700,4.6298447265625,-0.6183483600616455,1.0890964269638062,-0.007712173741310835
1712834501321844700,4.6498447265625,-0.8272642493247986,1.3364968299865723,0.11568260937929153
1712834501341844700,4.6698447265625,-0.9689850211143494,1.4788284301757812,0.23663392663002014
1712834501361844700,4.6898447265625,-1.031293272972107,1.1703414916992188,0.21769709885120392
1712834501381844700,4.7098447265625,-1.0264062881469727,0.7384597063064575,0.122402124106884
1712834501401845000,4.729844970703125,-0.9903652667999268,0.30718886852264404,0.011835514567792416
1712834501421845000,4.749844970703125,-0.8144360780715942,0.010308351367712021,-0.180587038397789
1712834501441845000,4.769844970703125,-0.451582133769989,0.18929186463356018,-0.45120033621788025
1712834501461845000,4.789844970703125,-0.07712173461914062,0.4953353703022003,-0.6943247318267822
1712834501481811500,4.8098115234375,0.2295326143503189,0.9522625803947449,-1.0797806978225708
1712834501501778000,4.82977783203125,0.6436992287635803,1.958357572555542,-1.4743996858596802
1712834501521744600,4.84974462890625,1.1073459386825562,3.0127110481262207,-1.7285195589065552
1712834501541711400,4.86971142578125,1.3040446043014526,3.680997610092163,-1.8109863996505737
1712834501561678000,4.889677978515625,1.3584115505218506,3.744527578353882,-1.8360317945480347
1712834501581644500,4.90964453125,1.2447906732559204,3.549661636352539,-1.9270508289337158
1712834501601611300,4.929611328125,0.9692904353141785,3.2546136379241943,-2.022345781326294
1712834501621578200,4.949578125,0.7060074806213379,2.4898104667663574,-1.9679787158966064
1712834501641545000,4.969544921875,0.5850561857223511,1.7873153686523438,-1.8451948165893555
1712834501661511700,4.98951171875,0.4940372705459595,1.8129717111587524,-1.782275676727295
1712834501681478100,5.00947802734375,0.29306259751319885,2.715219736099243,-1.8940640687942505
1712834501701444900,5.02944482421875,0.18616119027137756,2.3786330223083496,-2.0235674381256104
1712834501721411600,5.04941162109375,-0.06123924255371094,2.1629974842071533,-1.0376310348510742
1712834501741378300,5.06937841796875,-0.42531493306159973,1.0976485013961792,-0.2459496259689331
1712834501761345300,5.08934521484375,-0.014202617108821869,-0.49732068181037903,-0.4273765981197357
1712834501781312000,5.10931201171875,0.41951170563697815,-1.1827114820480347,-0.2673299014568329
1712834501801278500,5.129278564453125,0.009010262787342072,-0.4851033687591553,0.5316818356513977
1712834501821245200,5.1492451171875,-0.12599095702171326,0.20028744637966156,1.3203089237213135
1712834501841212000,5.1692119140625,0.17638733983039856,0.2381610870361328,2.2500457763671875
1712834501861178600,5.1891787109375,0.3517056703567505,-0.23831380903720856,2.927495241165161
1712834501881145000,5.20914501953125,0.26801711320877075,-1.772807240486145,3.11075496673584
1712834501901111800,5.22911181640625,-0.03130684420466423,-3.6878697872161865,3.1125874519348145
1712834501921078500,5.24907861328125,-0.6940956115722656,-5.321934223175049,2.9702558517456055
1712834501941045200,5.269045166015625,-1.6311628818511963,-6.595588207244873,2.4821746349334717
1712834501961012000,5.289011962890625,-1.649488925933838,-8.304789543151855,1.933006763458252
1712834501980978400,5.308978515625,-0.8480336666107178,-8.770268440246582,1.7332537174224854
1712834502000945000,5.32894482421875,-0.38377609848976135,-6.7055439949035645,2.3422863483428955
1712834502020911600,5.34891162109375,-0.34345898032188416,-2.9175686836242676,2.3667209148406982
1712834502040878300,5.36887841796875,-0.25671613216400146,0.010308351367712021,1.4681382179260254
1712834502060845000,5.388844970703125,0.0835358202457428,1.9827922582626343,0.6367506384849548
1712834502080845000,5.408844970703125,0.47998735308647156,2.9613983631134033,0.1877647042274475
1712834502100845000,5.428844970703125,1.1714868545532227,3.1874184608459473,0.1975385546684265
1712834502120845300,5.44884521484375,1.3333661556243896,1.8044195175170898,0.15172365307807922
1712834502140845300,5.46884521484375,0.8910996913909912,-0.2651918828487396,-0.43531784415245056
1712834502160845300,5.48884521484375,0.6461427211761475,-1.5596153736114502,-0.919734001159668
1712834502180845300,5.50884521484375,0.6107125282287598,-1.6646841764450073,-0.9985355734825134
1712834502200845300,5.52884521484375,0.5258022546768188,-0.9963975548744202,-0.8122217059135437
1712834502220845000,5.548844970703125,0.25335636734962463,-0.19677497446537018,-0.47258061170578003
1712834502240845000,5.568844970703125,0.024892758578062057,0.23205243051052094,-0.2978731691837311
1712834502260845300,5.58884521484375,-0.06185010448098183,0.3438407778739929,-0.3168099820613861
1712834502280845300,5.60884521484375,-0.1895209401845932,0.20578522980213165,-0.40477457642555237
1712834502300845300,5.62884521484375,-0.28848111629486084,0.16730071604251862,-0.4029420018196106
1712834502320845300,5.64884521484375,-0.32940909266471863,0.2332741618156433,-0.2166280895471573
1712834502340845300,5.66884521484375,-0.3770565688610077,0.28641945123672485,-0.06879869848489761
1712834502360845000,5.688844970703125,-0.4411974251270294,0.3450624942779541,0.03443752974271774
1712834502380845000,5.708844970703125,-0.5242751240730286,0.4147011339664459,0.06253732740879059
1712834502400845000,5.728844970703125,-0.6061310172080994,0.4959462285041809,0.048487428575754166
1712834502420845000,5.748844970703125,-0.73685622215271,0.5686391592025757,0.045433104038238525
1712834502440845000,5.768844970703125,-0.8718574047088623,0.6266713738441467,0.05826127156615257
1712834502460845000,5.788844970703125,-0.9036223888397217,0.5863542556762695,0.03321579843759537
1712834502480845000,5.808844970703125,-0.917672336101532,0.391488254070282,-0.025427265092730522
1712834502500845000,5.828844970703125,-0.907898485660553,0.15447254478931427,0.008781188167631626
1712834502520845000,5.848844970703125,-0.70692378282547,0.10193813592195511,-0.13660474121570587
1712834502540845000,5.868844970703125,-0.033139441162347794,0.20028744637966156,-0.8439866900444031
1712834502560845000,5.888844970703125,0.7530441284179688,1.5771777629852295,-1.3546700477600098
1712834502580845000,5.908844970703125,1.1977540254592896,3.7408623695373535,-1.4566845893859863
1712834502600845000,5.928844970703125,1.5526667833328247,5.274134159088135,-1.393154501914978
1712834502620845300,5.94884521484375,1.6027576923370361,5.530086517333984,-1.4383585453033447
1712834502640845300,5.96884521484375,1.4170546531677246,4.803156852722168,-1.5336534976959229
1712834502660845300,5.98884521484375,1.0053315162658691,4.096385955810547,-2.1726186275482178
1712834502680845300,6.00884521484375,0.2515237629413605,4.335844993591309,-2.725451707839966
1712834502700845300,6.02884521484375,0.1189660057425499,4.255821704864502,-2.315561056137085
1712834502720845000,6.048844970703125,-0.01114829070866108,3.652287006378174,-1.3253484964370728
1712834502740845000,6.068844970703125,-0.5114469528198242,1.8569539785385132,-0.9557750225067139
1712834502760845300,6.08884521484375,-0.5700899958610535,-0.5162574648857117,-1.3125203847885132
1712834502780845300,6.10884521484375,-0.24755313992500305,-1.356808066368103,-0.8384889364242554
1712834502800845300,6.12884521484375,-0.2866485118865967,-0.4936554729938507,0.1578323096036911
1712834502820845300,6.14884521484375,-0.33857205510139465,0.1929570585489273,1.0258718729019165
1712834502840845300,6.16884521484375,-0.13026700913906097,0.13981178402900696,1.5298357009887695
1712834502860845000,6.188844970703125,0.05115996301174164,-0.5620723962783813,1.8529833555221558
1712834502880845000,6.208844970703125,0.1586722433567047,-1.567556619644165,2.2140047550201416
1712834502900845000,6.228844970703125,0.24113905429840088,-2.340301036834717,2.6471080780029297
1712834502920845000,6.248844970703125,0.11041389405727386,-3.2327752113342285,2.8425850868225098
1712834502940845000,6.268844970703125,-0.351400226354599,-4.2156572341918945,2.787607192993164
1712834502960845000,6.288844970703125,-1.2279918193817139,-5.088583946228027,2.2781455516815186
1712834502980845000,6.308844970703125,-2.1931588649749756,-5.698227405548096,1.9061286449432373
1712834503000845000,6.328844970703125,-1.9872974157333374,-7.453854084014893,1.8560377359390259
1712834503020845000,6.348844970703125,-0.6385068893432617,-8.747056007385254,1.8639789819717407
1712834503040845000,6.368844970703125,-0.12049316614866257,-6.635294437408447,2.754009485244751
1712834503060845000,6.388844970703125,-0.2548835277557373,-4.047058582305908,2.7106382846832275
1712834503080845000,6.408844970703125,-0.24938572943210602,-0.9359219074249268,1.4718034267425537
1712834503100845000,6.428844970703125,0.026114489883184433,1.9100992679595947,0.5671120285987854
1712834503120845300,6.44884521484375,0.3859141170978546,3.965049982070923,0.3850741684436798
1712834503140845300,6.46884521484375,1.1965322494506836,5.1256937980651855,0.5402339696884155
1712834503160845300,6.48884521484375,1.3406964540481567,3.4959053993225098,0.39729148149490356
1712834503180845300,6.50884521484375,0.7292203903198242,0.1422552466392517,-0.5379431843757629
1712834503200845300,6.52884521484375,0.4488332271575928,-1.849776268005371,-0.9795987606048584
1712834503220845000,6.548844970703125,0.3663664162158966,-2.664670467376709,-0.9795987606048584
1712834503240845000,6.568844970703125,0.27229318022727966,-2.5650994777679443,-0.8360454440116882
1712834503260845300,6.58884521484375,0.42867469787597656,-1.736155390739441,-0.6081926822662354
1712834503280845300,6.60884521484375,0.3419318199157715,-0.739834189414978,-0.46586111187934875
1712834503300845300,6.62884521484375,0.1635591685771942,0.20456349849700928,-0.47746753692626953
1712834503320845300,6.64884521484375,0.07437284290790558,0.8612436652183533,-0.5287802219390869
1712834503340845300,6.66884521484375,-0.036193765699863434,1.1953868865966797,-0.4878522455692291
1712834503360845000,6.688844970703125,-0.1589776873588562,1.302288293838501,-0.3772856593132019
1712834503380845000,6.708844970703125,-0.2145664244890213,1.1972194910049438,-0.26488643884658813
1712834503400845000,6.728844970703125,-0.23411411046981812,0.924773633480072,-0.22334760427474976
1712834503420845000,6.748844970703125,-0.3098613917827606,0.6578255295753479,-0.2013564556837082
1712834503440845000,6.768844970703125,-0.4075998365879059,0.5545892715454102,-0.13110695779323578
1712834503460845000,6.788844970703125,-0.5389358401298523,0.5051091909408569,-0.1201113760471344
1712834503480845000,6.808844970703125,-0.6244570016860962,0.5014439821243286,-0.15309810638427734
1712834503500845000,6.828844970703125,-0.633009135723114,0.5222133994102478,-0.16653713583946228
1712834503520845000,6.848844970703125,-0.5707008838653564,0.7500661611557007,-0.2013564556837082
1712834503540845000,6.868844970703125,-0.27809640765190125,1.0726029872894287,-0.5629886984825134
1712834503560845000,6.888844970703125,0.5154175758361816,1.522810697555542,-1.2300535440444946
1712834503580845000,6.908844970703125,1.2221885919570923,3.194748878479004,-1.345507025718689
1712834503600845000,6.928844970703125,1.514182209968567,4.968090534210205,-1.2599859237670898
1712834503620845300,6.94884521484375,1.5972598791122437,5.409135341644287,-1.3491722345352173
1712834503640845300,6.96884521484375,1.3315335512161255,4.933882236480713,-1.6747634410858154
1712834503660845300,6.98884521484375,0.9063712954521179,4.220391750335693,-2.0602192878723145
1712834503680845300,7.00884521484375,0.5099197626113892,3.918013334274292,-2.7016279697418213
1712834503700845300,7.02884521484375,-0.2854267954826355,4.198400497436523,-3.071812152862549
1712834503720845000,7.048844970703125,-0.3501785099506378,3.7940077781677246,-1.986304759979248
1712834503740845000,7.068844970703125,-0.7502952218055725,1.9149861335754395,-1.1549171209335327
1712834503760845300,7.08884521484375,-0.8480336666107178,-1.078864336013794,-1.5385404825210571
1712834503780845300,7.10884521484375,-0.4265366494655609,-2.2718842029571533,-1.5501469373703003
1712834503800845300,7.12884521484375,-0.5963571667671204,-1.2554044723510742,-0.7786241173744202
1712834503820845300,7.14884521484375,-0.945772111415863,0.45257478952407837,0.49991685152053833
1712834503840845300,7.16884521484375,-0.6959282159805298,1.066494345664978,1.2983176708221436
1712834503860845000,7.188844970703125,-0.24572055041790009,0.3242930769920349,1.4650839567184448
1712834503880845000,7.208844970703125,-0.04963280260562897,-0.7331146597862244,1.7088191509246826
1712834503900845000,7.228844970703125,0.2790127098560333,-1.7526487112045288,2.281810760498047
1712834503920845000,7.248844970703125,0.4158465266227722,-2.684828996658325,2.9592602252960205
1712834503940845000,7.268844970703125,0.06215553730726242,-3.7636170387268066,3.3019556999206543
1712834503960845000,7.288844970703125,-0.4870123267173767,-4.777042388916016,3.11380934715271
1712834503980845000,7.308844970703125,-1.286634922027588,-5.75992488861084,2.759507417678833
1712834504000845000,7.328844970703125,-1.6006196737289429,-7.280368328094482,2.2640957832336426
1712834504020845000,7.348844970703125,-0.9195048809051514,-8.17162036895752,1.5029575824737549
1712834504040845000,7.368844970703125,-0.6470590233802795,-5.530850410461426,1.8395442962646484
1712834504060845000,7.388844970703125,0.23258693516254425,-2.2327888011932373,2.9928579330444336
1712834504080845000,7.408844970703125,0.15256360173225403,-0.08926268666982651,1.8505399227142334
1712834504100845000,7.428844970703125,0.5526803135871887,1.9620227813720703,0.5090798139572144
1712834504120845300,7.44884521484375,0.6046038866043091,1.663920521736145,0.0869719386100769
1712834504140845300,7.46884521484375,1.098183035850525,2.2277491092681885,-0.18364135921001434
1712834504160845300,7.48884521484375,1.324813961982727,1.863673448562622,-0.23373231291770935
1712834504180845300,7.50884521484375,0.9106473922729492,0.45379650592803955,-0.5403866767883301
1712834504200845300,7.52884521484375,0.6210972666740417,-0.5516876578330994,-0.7719045877456665
1712834504220844800,7.5488447265625,0.304669052362442,-1.281060814857483,-0.7627416253089905
1712834504240844800,7.5688447265625,0.10552696883678436,-1.5846607685089111,-0.6955464482307434
1712834504260845300,7.58884521484375,0.014508049935102463,-1.4924201965332031,-0.5703190565109253
1712834504280845300,7.60884521484375,-0.0429132841527462,-0.9737955331802368,-0.39622247219085693
1712834504300845300,7.62884521484375,-0.2249511331319809,-0.24808764457702637,-0.1500437706708908
1712834504320845300,7.64884521484375,-0.3813326358795166,0.2485457956790924,-0.01687515154480934
1712834504340845300,7.66884521484375,-0.37888917326927185,0.40798163414001465,-0.08407033234834671
1712834504360844800,7.6888447265625,-0.4167627990245819,0.6022367477416992,-0.14393512904644012
1712834504380844800,7.7088447265625,-0.5126686692237854,0.7983245253562927,-0.12927435338497162
1712834504400844800,7.7288447265625,-0.555429220199585,0.9314931631088257,-0.04558581858873367
1712834504420844800,7.7488447265625,-0.6354525685310364,1.0451140403747559,0.05032002553343773
1712834504440844800,7.7688447265625,-0.7447974681854248,0.8844565153121948,0.07108944654464722
1712834504460844800,7.7888447265625,-0.7570147514343262,0.562530517578125,0.031383201479911804
1712834504480844800,7.8088447265625,-0.8144360780715942,0.12515102326869965,-0.22334760427474976
1712834504500844800,7.8288447265625,-0.7185302376747131,-0.20777054131031036,-0.41577014327049255
1712834504520844800,7.8488447265625,-0.4992296099662781,0.023747386410832405,-0.7615199089050293
1712834504540844800,7.8688447265625,-0.07101308554410934,0.6242279410362244,-1.3180180788040161
1712834504560844800,7.8888447265625,0.699288010597229,1.7824283838272095,-1.7608953714370728
1712834504580844800,7.9088447265625,1.1220067739486694,3.2662200927734375,-1.8812358379364014
1712834504600844800,7.9288447265625,1.3608551025390625,3.8471529483795166,-2.0944278240203857
1712834504620845300,7.94884521484375,1.5001323223114014,3.655952215194702,-2.242868185043335
1712834504640845300,7.96884521484375,1.3559681177139282,3.181309938430786,-2.3619868755340576
1712834504660845300,7.98884521484375,1.2447906732559204,3.1018972396850586,-2.64848256111145
1712834504680845300,8.00884521484375,0.8342891931533813,3.21185302734375,-3.335095167160034
1712834504700845300,8.02884521484375,0.45494189858436584,3.3132567405700684,-2.9038243293762207
1712834504720845000,8.048844970703126,0.03039054572582245,2.932687759399414,-1.756008505821228
1712834504740845000,8.068844970703125,-0.2652682363986969,1.2008846998214722,-1.1158217191696167
1712834504760845300,8.08884521484375,-0.10583240538835526,-0.9334784746170044,-1.137812852859497
1712834504780845300,8.10884521484375,-0.1589776873588562,-1.7776942253112793,-1.005255103111267
1712834504800845300,8.12884521484375,-0.26404649019241333,-1.2743412256240845,-0.6020840406417847
1712834504820845300,8.14884521484375,-0.6861543655395508,0.22655464708805084,0.0619264654815197
1712834504840845300,8.16884521484375,-0.9622654914855957,1.4592807292938232,0.647746205329895
1712834504860845000,8.188844970703125,-0.7221954464912415,1.40980064868927,1.039921760559082
1712834504880845000,8.208844970703124,-0.5444336533546448,0.6352235078811646,1.553659439086914
1712834504900845000,8.228844970703125,-0.31841349601745605,-0.662865161895752,2.270815134048462
1712834504920845000,8.248844970703125,-0.06918048858642578,-2.265775442123413,2.7026968002319336
1712834504940845000,8.268844970703125,-0.16752979159355164,-3.5931856632232666,2.7106382846832275
1712834504960845000,8.288844970703124,-0.651945948600769,-4.470999240875244,2.6330583095550537
1712834504980845000,8.308844970703126,-1.049619197845459,-5.131955146789551,2.698420763015747
1712834505000845000,8.328844970703125,-0.9537133574485779,-6.022596836090088,2.017306089401245
1712834505020845000,8.348844970703125,-0.8394815921783447,-5.457546234130859,1.5218944549560547
1712834505040845000,8.368844970703124,-0.6342308521270752,-3.1545844078063965,2.6049585342407227
1712834505060845000,8.388844970703126,-0.17180584371089935,-1.737987995147705,3.3508248329162598
1712834505080845000,8.408844970703125,-0.1492038369178772,-1.338482141494751,2.0411298274993896
1712834505100845000,8.428844970703125,-0.09483683109283447,-0.4826599061489105,0.903698742389679
1712834505120845300,8.44884521484375,0.1647808998823166,0.7598400115966797,0.3862959146499634
1712834505140845300,8.46884521484375,0.737772524356842,1.9247599840164185,0.35208746790885925
1712834505160845300,8.48884521484375,1.0199922323226929,1.863673448562622,0.3038291037082672
1712834505180845300,8.50884521484375,0.8807149529457092,0.9333257079124451,-0.035811975598335266
1712834505200845300,8.52884521484375,0.5716171264648438,-0.06360634416341782,-0.5000695586204529
1712834505220845000,8.548844970703126,0.3266601860523224,-0.643317461013794,-0.6662248969078064
1712834505240845000,8.568844970703125,0.16233743727207184,-1.1411726474761963,-0.586812436580658
1712834505260845300,8.58884521484375,0.2050980031490326,-1.3684145212173462,-0.5971971154212952
1712834505280845300,8.60884521484375,0.2796235680580139,-1.0868055820465088,-0.6424011588096619
1712834505300845300,8.62884521484375,0.18188512325286865,-0.42707115411758423,-0.6014732122421265
1712834505320845300,8.64884521484375,0.005345070734620094,0.19723311066627502,-0.5141194462776184
1712834505340845300,8.66884521484375,-0.16142113506793976,0.544204592704773,-0.42065706849098206
1712834505360845000,8.688844970703125,-0.3165809214115143,0.6675993800163269,-0.33941200375556946
1712834505380845000,8.708844970703124,-0.41370847821235657,0.6217844486236572,-0.2813797891139984
1712834505400845000,8.728844970703125,-0.5053382515907288,0.4855615198612213,-0.17142406105995178
1712834505420845000,8.748844970703125,-0.5633704662322998,0.35178202390670776,-0.05291620269417763
1712834505440845000,8.768844970703125,-0.6000223755836487,0.20456349849700928,0.07475463300943375
1712834505460845000,8.788844970703124,-0.6513350605964661,0.10315986722707748,0.14683672785758972
1712834505480845000,8.808844970703126,-0.746019184589386,0.0970512181520462,0.2140319049358368
1712834505500845000,8.828844970703125,-0.888350784778595,0.11415544152259827,0.2293035387992859
1712834505520845000,8.848844970703125,-0.8565858006477356,0.14469870924949646,0.22014056146144867
1712834505540845000,8.868844970703124,-0.6653849482536316,0.2839759886264801,0.15599970519542694
1712834505560845000,8.888844970703126,-0.5218316316604614,0.5399284958839417,-0.1506546437740326
1712834505580845000,8.908844970703125,-0.32940909266471863,0.6059019565582275,-0.7615199089050293
1712834505600845000,8.928844970703125,0.26313021779060364,1.6718617677688599,-1.387656807899475
1712834505620845300,8.94884521484375,0.7023423314094543,3.2711069583892822,-1.5898531675338745
1712834505640845300,8.96884521484375,1.060920238494873,4.538652420043945,-1.5586990118026733
1712834505660845300,8.98884521484375,1.0487029552459717,4.803768157958984,-1.6558265686035156
1712834505680845300,9.00884521484375,0.8013024926185608,4.6870927810668945,-2.167731761932373
1712834505700845300,9.02884521484375,0.5380195379257202,4.679762363433838,-2.776764392852783
1712834505720845000,9.048844970703126,-0.1088867336511612,4.3132429122924805,-3.4896440505981445
1712834505740845000,9.068844970703125,-0.2603813111782074,3.4781904220581055,-2.815859794616699
1712834505760845300,9.08884521484375,-0.16325373947620392,2.1245129108428955,-1.3644438982009888
1712834505780845300,9.10884521484375,-0.3043636083602905,-0.4985423982143402,-0.9728792905807495
1712834505800845300,9.12884521484375,0.03649919852614403,-2.54433012008667,-1.1029936075210571
1712834505820845300,9.14884521484375,0.18005253374576569,-2.708652973175049,-0.8885798454284668
1712834505840845300,9.16884521484375,0.07254024595022202,-1.5510631799697876,-0.48663052916526794
1712834505860845000,9.188844970703125,-0.1241583600640297,0.5130504369735718,0.23663392663002014
1712834505880845000,9.208844970703124,-0.18096883594989777,1.818469524383545,1.0784062147140503
1712834505900845000,9.228844970703125,0.05910121276974678,1.7396678924560547,1.626352310180664
1712834505920845000,9.248844970703125,0.32788193225860596,0.6865361928939819,1.9940931797027588
1712834505940845000,9.268844970703125,0.4873177409172058,-0.5938373804092407,2.449187755584717
1712834505960845000,9.288844970703124,0.5929974317550659,-1.8222874402999878,2.8780152797698975
1712834505980845000,9.308844970703126,0.3669773042201996,-3.1399238109588623,3.014238119125366
1712834506000845000,9.328844970703125,-0.34895676374435425,-4.3854780197143555,2.664823293685913
1712834506020845000,9.348844970703125,-1.1956160068511963,-5.647525787353516,2.5878541469573975
1712834506040845000,9.368844970703124,-1.069166898727417,-7.707973957061768,1.9922606945037842
1712834506060845000,9.388844970703126,-0.18768835067749023,-8.202163696289062,1.1541534662246704
1712834506080845000,9.408844970703125,-0.1137736514210701,-5.284060955047607,2.21766996383667
1712834506100845000,9.428844970703125,-0.1791362315416336,-1.764255166053772,3.1412980556488037
1712834506120845300,9.44884521484375,0.18127426505088806,0.3004693388938904,1.619022011756897
1712834506140845300,9.46884521484375,0.427452951669693,1.8068630695343018,0.30077478289604187
1712834506160845300,9.48884521484375,0.23869559168815613,2.628476858139038,-0.08223773539066315
1712834506180845300,9.50884521484375,0.8532260060310364,3.680386781692505,-0.06696610152721405
1712834506200845300,9.52884521484375,1.3016011714935303,2.8563294410705566,0.05520694702863693
1712834506220845000,9.548844970703126,0.8788823485374451,0.6902013421058655,-0.3082578778266907
1712834506240845000,9.568844970703125,0.5508477091789246,-1.2804498672485352,-0.9050732254981995
1712834506260845300,9.58884521484375,0.4836525619029999,-2.0996201038360596,-1.0431287288665771
1712834506280845300,9.60884521484375,0.3675881624221802,-2.01104474067688,-0.919123113155365
1712834506300845300,9.62884521484375,0.29856038093566895,-1.260291337966919,-0.673555314540863
1712834506320845300,9.64884521484375,0.26862800121307373,-0.5278639197349548,-0.45120033621788025
1712834506340845300,9.66884521484375,0.12018773704767227,0.1630246639251709,-0.29420796036720276
1712834506360845000,9.688844970703125,-0.15225815773010254,0.725020706653595,-0.2771037518978119
1712834506380845000,9.708844970703124,-0.3147483170032501,0.9412670135498047,-0.31986430287361145
1712834506400845000,9.728844970703125,-0.4271475374698639,0.9773080348968506,-0.26977336406707764
1712834506420845000,9.748844970703125,-0.5096143484115601,0.9003390073776245,-0.15920674800872803
1712834506440845000,9.768844970703125,-0.5529857873916626,0.753731369972229,-0.05780312418937683
1712834506460845000,9.788844970703124,-0.5676465034484863,0.5716935396194458,0.025274548679590225
1712834506480845000,9.808844970703126,-0.5432119369506836,0.35178202390670776,0.04909829422831535
1712834506500845000,9.828844970703125,-0.5383250117301941,0.15080735087394714,0.03199406713247299
1712834506520845000,9.848844970703125,-0.5328271985054016,0.06467536091804504,-0.06085744872689247
1712834506540845000,9.868844970703124,-0.6568328738212585,0.1074359267950058,-0.06757696717977524
1712834506560845000,9.888844970703126,-0.6928738951683044,0.1575268805027008,-0.07796167582273483
1712834506580845000,9.908844970703125,-0.3507893681526184,0.3255148231983185,-0.5049564838409424
1712834506600845000,9.928844970703125,0.11652254313230515,0.9516516923904419,-0.9588293433189392
1712834506620845300,9.94884521484375,0.5496259927749634,2.3560309410095215,-1.2379947900772095
1712834506640845300,9.96884521484375,0.8251262307167053,3.6712238788604736,-1.4218652248382568
1712834506660845300,9.98884521484375,0.9271407127380371,4.233830451965332,-1.630170226097107
1712834506680845300,10.00884521484375,0.8446739315986633,3.923511028289795,-1.7816648483276367
1712834506700845300,10.02884521484375,0.5636758804321289,3.4806337356567383,-2.463390350341797
1712834506720845000,10.048844970703126,0.27351492643356323,3.938171863555908,-3.2666783332824707
1712834506740845000,10.068844970703125,-0.07040221989154816,3.7353646755218506,-3.7242162227630615
1712834506760845300,10.08884521484375,-0.058795779943466187,3.488574981689453,-3.1261792182922363
1712834506780845300,10.10884521484375,-0.7276932001113892,2.6602418422698975,-1.5189927816390991
1712834506800845300,10.12884521484375,-0.9042332768440247,-0.32444581389427185,-0.9160687923431396
1712834506820845300,10.14884521484375,-0.09728029370307922,-2.918179750442505,-1.158582329750061
1712834506840845300,10.16884521484375,0.08048149943351746,-3.141756296157837,-1.1237629652023315
1712834506860845000,10.188844970703125,-0.0887281745672226,-1.8418350219726562,-0.47074803709983826
1712834506880845000,10.208844970703124,-0.3220787048339844,0.10926852375268936,0.3698025345802307
1712834506900845000,10.228844970703125,-0.23350323736667633,1.4427874088287354,0.8810967803001404
1712834506920845000,10.248844970703125,-0.027030786499381065,1.8496235609054565,1.4253777265548706
1712834506940845000,10.268844970703125,0.14706580340862274,1.3401620388031006,1.9000200033187866
1712834506960845000,10.288844970703124,0.41523563861846924,0.2137264758348465,2.449187755584717
1712834506980845000,10.308844970703126,0.6546948552131653,-0.976239025592804,3.0624966621398926
1712834507000845000,10.328844970703125,0.5771149396896362,-2.4038310050964355,3.5065956115722656
1712834507020845000,10.348844970703125,0.1134682223200798,-3.4978907108306885,3.3422727584838867
1712834507040845000,10.368844970703124,-0.735634446144104,-4.335998058319092,2.9391016960144043
1712834507060845000,10.388844970703126,-1.1717922687530518,-5.6780686378479,2.5353198051452637
1712834507080845000,10.408844970703125,-0.47601673007011414,-7.332292079925537,1.7937294244766235
1712834507100845000,10.428844970703125,0.031001411378383636,-6.63101863861084,1.5579354763031006
1712834507120845300,10.44884521484375,0.06582073122262955,-3.9395463466644287,2.779055118560791
1712834507140845300,10.46884521484375,-0.1339322030544281,-1.3061062097549438,3.2219324111938477
1712834507160845300,10.48884521484375,0.28206703066825867,0.542982816696167,1.3649020195007324
1712834507180845300,10.50884521484375,0.2496911734342575,1.1880565881729126,0.048487428575754166
1712834507200845300,10.52884521484375,0.35414913296699524,2.4647648334503174,-0.14332425594329834
1712834507220845000,10.548844970703126,0.9332493543624878,3.7274234294891357,-0.04314235970377922
1712834507240845000,10.568844970703125,1.1293370723724365,2.904587984085083,0.0973566472530365
1712834507260845300,10.58884521484375,0.7652614116668701,0.5570327639579773,-0.3314707577228546
1712834507280845300,10.60884521484375,0.5850561857223511,-1.279839038848877,-0.8861364126205444
1712834507300845300,10.62884521484375,0.42562034726142883,-2.207132577896118,-1.0113637447357178
1712834507320845300,10.64884521484375,0.2588541507720947,-2.296318769454956,-0.8549822568893433
1712834507340845300,10.66884521484375,0.22098049521446228,-1.9243018627166748,-0.644233763217926
1712834507360845000,10.688844970703125,0.1898263692855835,-1.3452016115188599,-0.47563496232032776
1712834507380845000,10.708844970703124,0.07070764899253845,-0.5345834493637085,-0.3669009506702423
1712834507400811500,10.7288115234375,-0.05757404863834381,0.1636355221271515,-0.28443413972854614
1712834507420778200,10.7487783203125,-0.11071932315826416,0.6700428128242493,-0.23861923813819885
1712834507440745000,10.768744873046876,-0.19746218621730804,1.0011317729949951,-0.21907155215740204
1712834507460711700,10.788711669921875,-0.3617849349975586,1.2308170795440674,-0.15370896458625793
1712834507480678700,10.8086787109375,-0.49006664752960205,1.305342674255371,-0.0290924571454525
1712834507500645000,10.82864501953125,-0.5309945940971375,1.163011074066162,0.09369145333766937
1712834507520611800,10.84861181640625,-0.5694791078567505,0.7934376001358032,0.13095423579216003
1712834507540578600,10.86857861328125,-0.603687584400177,0.38415786623954773,0.1724930703639984
1712834507560545300,10.888545166015625,-0.7295258045196533,0.0005345070967450738,0.1578323096036911
1712834507580511700,10.90851171875,-0.793666660785675,-0.22792910039424896,0.060093868523836136
1712834507600478500,10.928478515625,-0.8462010622024536,-0.19005544483661652,-0.11583532392978668
1712834507620445200,10.948445068359375,-0.6531676650047302,0.07261660695075989,-0.5300019383430481
1712834507640412000,10.968411865234375,0.09636399149894714,0.8270351886749268,-1.0791698694229126
1712834507660378600,10.988378662109374,0.9699012637138367,2.4122304916381836,-1.2764792442321777
1712834507680345000,11.008344970703124,1.324813961982727,3.886859178543091,-1.1707996129989624
1712834507700311800,11.028311767578124,1.383457064628601,4.266817569732666,-1.268537998199463
1712834507720278300,11.0482783203125,1.4146112203598022,3.870976686477661,-1.716913104057312
1712834507740245000,11.068244873046876,1.1769846677780151,3.4873533248901367,-2.312506675720215
1712834507760211500,11.08821142578125,0.7976372838020325,3.317532777786255,-2.6136631965637207
1712834507780178200,11.10817822265625,0.2893974184989929,3.52095103263855,-3.1267900466918945
1712834507800145000,11.128144775390625,-0.08933904021978378,3.6290740966796875,-3.0009517669677734
1712834507820111600,11.148111572265625,-0.4570799171924591,3.264387607574463,-2.022345781326294
1712834507840078300,11.168078369140625,-0.7545713186264038,1.5863406658172607,-1.3186290264129639
1712834507860044800,11.188044921875,-0.7930558323860168,-1.1356748342514038,-1.3815481662750244
1712834507880011500,11.208011474609375,-0.717308521270752,-2.932840347290039,-1.3668873310089111
1712834507899978000,11.22797802734375,-0.6831000447273254,-2.879695177078247,-0.8134434223175049
1712834507919944700,11.24794482421875,-0.745408296585083,-1.3452016115188599,0.03810271993279457
1712834507939911400,11.267911376953125,-0.8083274364471436,0.4757876694202423,0.8658251166343689
1712834507959878100,11.287878173828124,-0.5334380865097046,1.2167671918869019,1.4858533143997192
1712834507979844900,11.307844970703124,-0.16508632898330688,0.8404742479324341,2.02830171585083
1712834507999844900,11.327844970703126,0.18066339194774628,-0.5871178507804871,2.480952739715576
1712834508019844900,11.347844970703125,0.30772337317466736,-2.5351672172546387,2.7472901344299316
1712834508039844900,11.367844970703125,-0.014202617108821869,-4.450229644775391,2.92444109916687
1712834508059844900,11.387844970703124,-0.5804746747016907,-6.268775463104248,2.4113142490386963
1712834508079844600,11.4078447265625,-0.9469938278198242,-8.298069953918457,1.6434565782546997
1712834508099844600,11.4278447265625,-1.0453431606292725,-7.171634197235107,1.713706135749817
1712834508119844600,11.4478447265625,-0.21884247660636902,-3.6744308471679688,2.4980571269989014
1712834508139844600,11.4678447265625,0.3107776939868927,-1.3152692317962646,2.5377633571624756
1712834508159844600,11.4878447265625,0.005955935921519995,0.6120105981826782,1.331915259361267
1712834508179844600,11.5078447265625,0.15745051205158234,0.9705885052680969,0.27145323157310486
1712834508199844600,11.5278447265625,0.266184538602829,1.3810899257659912,-0.23251058161258698
1712834508219844600,11.5478447265625,0.5642867684364319,2.217364549636841,-0.21723894774913788
1712834508239844600,11.5678447265625,0.7597636580467224,1.8697822093963623,-0.10728321224451065
1712834508259844600,11.5878447265625,0.7139487266540527,0.6834818720817566,-0.36018142104148865
1712834508279844600,11.6078447265625,0.5221370458602905,-0.30917418003082275,-0.6674466133117676
1712834508299844600,11.6278447265625,0.3553708493709564,-1.0464885234832764,-0.7175375819206238
1712834508319844600,11.6478447265625,0.17821992933750153,-1.42400324344635,-0.576427698135376
1712834508339844900,11.667844970703126,0.1488984078168869,-1.5302938222885132,-0.4640285074710846
1712834508359844900,11.687844970703125,0.23258693516254425,-1.2865585088729858,-0.4328743815422058
1712834508379844900,11.707844970703125,0.17760907113552094,-0.5852852463722229,-0.3772856593132019
1712834508399844900,11.727844970703124,0.05115996301174164,0.25160011649131775,-0.22334760427474976
1712834508419844900,11.747844970703126,-0.03375030308961868,0.7506770491600037,-0.05535966157913208
1712834508439844600,11.7678447265625,-0.12232576310634613,0.8777369856834412,0.03810271993279457
1712834508459844600,11.7878447265625,-0.2750420868396759,0.753120481967926,0.09124799817800522
1712834508479844900,11.807844970703124,-0.4363104999065399,0.4904484450817108,0.14133894443511963
1712834508499844900,11.827844970703126,-0.5273294448852539,0.24793493747711182,0.20914499461650848
1712834508519844900,11.847844970703125,-0.5340489149093628,0.12392928451299667,0.27695104479789734
1712834508539844900,11.867844970703125,-0.5823072791099548,0.12942707538604736,0.31238120794296265
1712834508559844900,11.887844970703124,-0.7130324840545654,0.208839550614357,0.2836705446243286
1712834508579844600,11.9078447265625,-0.8144360780715942,0.3762166202068329,0.19509509205818176
1712834508599844600,11.9278447265625,-0.7887797355651855,0.45440739393234253,-0.04314235970377922
1712834508619844600,11.9478447265625,-0.5981897711753845,0.8245916962623596,-0.4285983145236969
1712834508639844600,11.9678447265625,-0.07651086896657944,1.81052827835083,-0.8189412355422974
1712834508659844600,11.9878447265625,0.26801711320877075,2.9442942142486572,-1.1976776123046875
1712834508679844600,12.0078447265625,0.5050328373908997,3.3859496116638184,-1.6326137781143188
1712834508699844600,12.0278447265625,0.7628179788589478,3.535611629486084,-2.011350154876709
1712834508719844600,12.0478447265625,0.8581129312515259,3.100064754486084,-2.4035255908966064
1712834508739844600,12.0678447265625,0.9466884136199951,2.519742727279663,-2.6429848670959473
1712834508759844600,12.0878447265625,1.0157161951065063,2.022498369216919,-2.748053550720215
1712834508779844600,12.1078447265625,0.9815077185630798,2.209423303604126,-2.8225791454315186
1712834508799844600,12.1278447265625,0.879493236541748,3.0542497634887695,-3.1512246131896973
1712834508819844600,12.1478447265625,0.4763221740722656,3.4311537742614746,-3.1707723140716553
1712834508839844900,12.167844970703126,0.012675453908741474,2.8667142391204834,-1.908113956451416
1712834508859844900,12.187844970703125,-0.047800205647945404,1.6724727153778076,-1.545259952545166
1712834508879844900,12.207844970703125,0.09086620807647705,-0.30550897121429443,-1.632002830505371
1712834508899844900,12.227844970703124,-0.08750644326210022,-1.0672580003738403,-1.1213195323944092
1712834508919844900,12.247844970703126,-0.3459024429321289,-0.7966446280479431,-0.4896848499774933
1712834508939844600,12.2678447265625,-0.46563202142715454,-0.1350775808095932,0.04787656292319298
1712834508959844600,12.2878447265625,-0.5700899958610535,0.524046003818512,0.5420665740966797
1712834508979844900,12.307844970703124,-0.5364924073219299,0.5246568918228149,1.339856505393982
1712834508999844900,12.327844970703126,-0.380721777677536,0.13125966489315033,2.052736282348633
1712834509019844900,12.347844970703125,-0.23105977475643158,-0.5211443901062012,2.628171443939209
1712834509039844900,12.367844970703125,-0.13576480746269226,-1.3623058795928955,3.0771572589874268
1712834509059844900,12.387844970703124,-0.07040221989154816,-2.139326333999634,3.367929220199585
1712834509079844600,12.4078447265625,-0.35445454716682434,-2.8729755878448486,3.4314591884613037
1712834509099844600,12.4278447265625,-1.0569496154785156,-3.373885154724121,3.1412980556488037
1712834509119844600,12.4478447265625,-1.9323195219039917,-4.162512302398682,3.2573626041412354
1712834509139844600,12.4678447265625,-1.6195564270019531,-6.68172025680542,2.9641473293304443
1712834509159844600,12.4878447265625,-0.5737552046775818,-9.162444114685059,2.2995259761810303
1712834509179844600,12.5078447265625,-0.6611089110374451,-8.131914138793945,2.5731935501098633
1712834509199844600,12.5278447265625,-0.8113817572593689,-5.43189001083374,2.692923069000244
1712834509219844600,12.5478447265625,-0.5957463383674622,-1.8051831722259521,1.9916497468948364
1712834509239844600,12.5678447265625,-0.23350323736667633,1.7543286085128784,0.9000335931777954
1712834509259844600,12.5878447265625,-0.08750644326210022,3.301039457321167,0.3496440052986145
1712834509279844600,12.6078447265625,0.7903069257736206,3.717649459838867,0.2079232633113861
1712834509299844600,12.6278447265625,1.0389291048049927,2.561281681060791,0.04604396969079971
1712834509319844600,12.6478447265625,0.7347181439399719,0.7903832793235779,-0.2361757755279541
1712834509339844900,12.667844970703126,0.7805330753326416,-0.8754462599754333,-0.5171737670898438
1712834509359844900,12.687844970703125,0.5636758804321289,-1.328708291053772,-0.654007613658905
1712834509379844900,12.707844970703125,0.4433354437351227,-1.365360140800476,-0.6521750092506409
1712834509399844900,12.727844970703124,0.47082439064979553,-1.3140474557876587,-0.5055673718452454
1712834509419844900,12.747844970703126,0.36819902062416077,-0.8901070356369019,-0.38583776354789734
1712834509439844600,12.7678447265625,0.31383201479911804,-0.24992024898529053,-0.33880114555358887
1712834509459844600,12.7878447265625,0.235030397772789,0.20212003588676453,-0.32536208629608154
1712834509479844900,12.807844970703124,0.06582073122262955,0.6559929251670837,-0.3076470196247101
1712834509499844900,12.827844970703126,-0.10583240538835526,0.9363800883293152,-0.22273674607276917
1712834509519844900,12.847844970703125,-0.20845776796340942,1.0884854793548584,-0.15187637507915497
1712834509539844900,12.867844970703125,-0.2506074607372284,1.1843913793563843,-0.07857254147529602
1712834509559844900,12.887844970703124,-0.26893341541290283,1.2387583255767822,-0.0492510087788105
1712834509579844600,12.9078447265625,-0.30314189195632935,1.1257482767105103,-0.05902485549449921
1712834509599844600,12.9278447265625,-0.35384368896484375,0.904615044593811,-0.06513350456953049
1712834509619844600,12.9478447265625,-0.36972618103027344,0.7525096535682678,-0.06879869848489761
1712834509639844600,12.9678447265625,-0.3318525552749634,0.5600870847702026,-0.10422888398170471
1712834509659844600,12.9878447265625,-0.40943244099617004,0.359112411737442,-0.14454598724842072
1712834509679844600,13.0078447265625,-0.5535966157913208,0.2796999216079712,-0.21968241035938263
1712834509699844600,13.0278447265625,-0.37461310625076294,0.5075526833534241,-0.48663052916526794
1712834509719844600,13.0478447265625,0.12446379661560059,0.9644798636436462,-1.0321332216262817
1712834509739844600,13.0678447265625,0.631481945514679,2.1446714401245117,-1.310687780380249
1712834509759844600,13.0878447265625,1.0700831413269043,3.635793685913086,-1.4188108444213867
1712834509779844600,13.1078447265625,1.3376421928405762,4.454352855682373,-1.5782467126846313
1712834509799844600,13.1278447265625,1.3571898937225342,4.114711761474609,-1.8849010467529297
1712834509819844600,13.1478447265625,1.057865858078003,3.317532777786255,-2.2251529693603516
1712834509839844900,13.167844970703126,0.7163922190666199,2.957122325897217,-2.8977155685424805
1712834509859844900,13.187844970703125,0.5502368807792664,3.194748878479004,-3.71199893951416
1712834509879844900,13.207844970703125,0.18310685455799103,3.5875351428985596,-3.82867431640625
1712834509899844900,13.227844970703124,0.023060163483023643,3.2747721672058105,-2.6521477699279785
1712834509919844900,13.247844970703126,-0.5823072791099548,1.4012484550476074,-1.2917509078979492
1712834509939844600,13.2678447265625,-0.6892086863517761,-0.8998808860778809,-1.4218652248382568
1712834509959844600,13.2878447265625,-0.46441030502319336,-2.2419517040252686,-1.5709162950515747
1712834509979844900,13.307844970703124,-0.5511531829833984,-2.0098230838775635,-1.1243737936019897
1712834509999844900,13.327844970703126,-0.584750771522522,-0.8870527148246765,-0.32352951169013977
1712834510019844900,13.347844970703125,-0.5908594131469727,0.3701079785823822,0.21769709885120392
1712834510039844900,13.367844970703125,-0.6574437022209167,1.0652726888656616,0.5408447980880737
1712834510059844900,13.387844970703124,-0.5218316316604614,0.9559277296066284,1.0545824766159058
1712834510079844600,13.4078447265625,-0.2744311988353729,0.330401748418808,1.7094299793243408
1712834510099844600,13.4278447265625,-0.03375030308961868,-0.3079524338245392,2.4345271587371826
1712834510119844600,13.4478447265625,0.19288070499897003,-1.0165561437606812,3.0924289226531982
1712834510139844600,13.4678447265625,0.2649627923965454,-2.061135768890381,3.3422727584838867
1712834510159844600,13.4878447265625,-0.04535674303770065,-2.9957594871520996,3.083876848220825
1712834510179844600,13.5078447265625,-0.6812674403190613,-4.232150554656982,2.7967700958251953
1712834510199844600,13.5278447265625,-1.0013608932495117,-5.819789409637451,2.4504096508026123
1712834510219844600,13.5478447265625,-1.1088731288909912,-7.045795917510986,1.997758388519287
1712834510239844600,13.5678447265625,-1.2738068103790283,-6.132552623748779,2.2408828735351562
1712834510259844600,13.5878447265625,-0.603687584400177,-3.8240928649902344,2.7295749187469482
1712834510279844600,13.6078447265625,0.06154467165470123,-2.218127965927124,2.3728296756744385
1712834510299844600,13.6278447265625,0.19654589891433716,-0.9872345924377441,1.401553988456726
1712834510319844600,13.6478447265625,0.3113885521888733,0.16485725343227386,0.600098729133606
1712834510339844900,13.667844970703126,0.49464812874794006,1.4134658575057983,0.1480584591627121
1712834510359844900,13.687844970703125,0.8159632682800293,2.5209646224975586,0.03871358558535576
1712834510379844900,13.707844970703125,1.0468703508377075,2.633974552154541,-0.021762074902653694
1712834510399844900,13.727844970703124,0.9509644508361816,1.610775351524353,-0.14637859165668488
1712834510419844900,13.747844970703126,0.8232936263084412,0.3438407778739929,-0.4530329406261444
1712834510439844600,13.7678447265625,0.5887213945388794,-0.6225480437278748,-0.6527858972549438
1712834510459844600,13.7878447265625,0.3908010423183441,-1.2890020608901978,-0.6729444265365601
1712834510479844900,13.807844970703124,0.21181751787662506,-1.3054953813552856,-0.5752059817314148
1712834510499844900,13.827844970703126,0.07864890247583389,-0.7893142700195312,-0.5367214679718018
1712834510519844900,13.847844970703125,0.14217889308929443,-0.32933273911476135,-0.5012912750244141
1712834510539844900,13.867844970703125,0.2295326143503189,0.03901901841163635,-0.46158504486083984
1712834510559844900,13.887844970703124,0.19165897369384766,0.3963751792907715,-0.43165266513824463
1712834510579844600,13.9078447265625,0.06154467165470123,0.6633232831954956,-0.3778965175151825
1712834510599844600,13.9278447265625,-0.047800205647945404,0.6981425881385803,-0.27893635630607605
1712834510619844600,13.9478447265625,-0.14553864300251007,0.5955172777175903,-0.19891299307346344
1712834510639844600,13.9678447265625,-0.280539870262146,0.4623486399650574,-0.15920674800872803
1712834510659844600,13.9878447265625,-0.39904773235321045,0.45318564772605896,-0.08834638446569443
1712834510679844600,14.0078447265625,-0.4943426847457886,0.5093852281570435,0.010002918541431427
1712834510699844600,14.0278447265625,-0.6317873597145081,0.5203808546066284,0.1272890418767929
1712834510719844600,14.0478447265625,-0.8168795704841614,0.420809805393219,0.17921258509159088
1712834510739844600,14.0678447265625,-0.9689850211143494,0.2491566687822342,0.20670153200626373
1712834510759844600,14.0878447265625,-1.021519422531128,0.16180293262004852,0.2586250603199005
1712834510779844600,14.1078447265625,-0.8058840036392212,-0.06299547851085663,0.11018481850624084
1712834510799844600,14.1278447265625,-0.3776674270629883,0.04329507425427437,-0.23861923813819885
1712834510819844600,14.1478447265625,0.009621127508580685,1.0127382278442383,-0.5153411626815796
1712834510839844900,14.167844970703126,0.4488332271575928,2.444606304168701,-0.7657959461212158
1712834510859844900,14.187844970703125,0.718224823474884,4.0982184410095215,-1.1091022491455078
1712834510879844900,14.207844970703125,0.8843801617622375,4.764672756195068,-1.4450781345367432
1712834510899844900,14.227844970703124,0.9167560338973999,4.599128246307373,-1.7108044624328613
1712834510919844900,14.247844970703126,0.6962336897850037,3.837379217147827,-1.7932713031768799
1712834510939844600,14.2678447265625,0.3407101035118103,2.68162202835083,-2.069382429122925
1712834510959844600,14.2878447265625,0.23625212907791138,2.750649929046631,-2.5605180263519287
1712834510979844900,14.307844970703124,-0.1394299864768982,3.4568099975585938,-3.069979667663574
1712834510999844900,14.327844970703126,-0.5682573914527893,3.6516761779785156,-2.9197068214416504
1712834511019844900,14.347844970703125,-0.6269004344940186,2.891148805618286,-1.8696293830871582
1712834511039844900,14.367844970703125,-0.8156577944755554,0.8728500604629517,-1.3412309885025024
1712834511059844900,14.387844970703124,-0.8205447196960449,-1.443550944328308,-1.2092840671539307
1712834511079844600,14.4078447265625,-0.4784601926803589,-2.761798143386841,-0.90018630027771
1712834511099844600,14.4278447265625,-0.36911532282829285,-2.8106672763824463,-0.4121049642562866
1712834511119844600,14.4478447265625,-0.3966042697429657,-1.849776268005371,0.31238120794296265
1712834511139844600,14.4678447265625,-0.19868391752243042,-0.6121633052825928,0.9556223154067993
1712834511159844600,14.4878447265625,-0.15164729952812195,0.524046003818512,1.5475507974624634
1712834511179844600,14.5078447265625,-0.13637566566467285,0.8655197024345398,2.047849416732788
1712834511199844600,14.5278447265625,0.07559457421302795,0.2986367344856262,2.4681246280670166
1712834511219844600,14.5478447265625,0.204487144947052,-0.7728208899497986,2.8676304817199707
1712834511239844600,14.5678447265625,0.12507465481758118,-2.058692216873169,3.1376330852508545
1712834511259844600,14.5878447265625,-0.16203200817108154,-3.3018031120300293,2.9500973224639893
1712834511279844600,14.6078447265625,-0.7759515643119812,-4.265137672424316,2.4595725536346436
1712834511299844600,14.6278447265625,-1.61100435256958,-5.7061686515808105,2.5261569023132324
1712834511319844600,14.6478447265625,-1.1015427112579346,-8.17162036895752,2.1443660259246826
1712834511339844900,14.667844970703126,-0.7997753024101257,-8.230875015258789,2.843806743621826
1712834511359844900,14.687844970703125,-0.43997567892074585,-6.219295501708984,3.18955659866333
1712834511379844900,14.707844970703125,-0.19013181328773499,-3.825925350189209,2.2805891036987305
1712834511399844900,14.727844970703124,-0.1644754707813263,-0.1760055422782898,0.9110291600227356
1712834511419844900,14.747844970703126,-0.38499781489372253,2.32182240486145,0.4876995384693146
1712834511439844600,14.7678447265625,0.5032002329826355,3.710930109024048,0.4418846368789673
1712834511459844600,14.7878447265625,1.2429580688476562,3.5343899726867676,0.354530930519104
1712834511479844900,14.807844970703124,1.108567714691162,2.1684951782226562,0.0918588638305664
1712834511499844900,14.827844970703126,1.0102183818817139,0.45440739393234253,-0.35590535402297974
1712834511519844900,14.847844970703125,0.9320276379585266,-0.7312820553779602,-0.566653847694397
1712834511539844900,14.867844970703125,0.6345362663269043,-1.2688435316085815,-0.5507713556289673
1712834511559844900,14.887844970703124,0.5936083197593689,-1.3146584033966064,-0.5849798321723938
1712834511579844600,14.9078447265625,0.6290385127067566,-0.9573022127151489,-0.5385540723800659
1712834511599844600,14.9278447265625,0.55695641040802,-0.28351783752441406,-0.49701523780822754
1712834511619844600,14.9478447265625,0.3663664162158966,0.4373031556606293,-0.46586111187934875
1712834511639844600,14.9678447265625,0.16783522069454193,0.9968557357788086,-0.3840051591396332
1712834511659844600,14.9878447265625,0.009621127508580685,1.3126730918884277,-0.30459266901016235
1712834511679844600,15.0078447265625,-0.15103642642498016,1.3181707859039307,-0.23251058161258698
1712834511699844600,15.0278447265625,-0.2817615866661072,1.0713813304901123,-0.1757001131772995
1712834511719844600,15.0478447265625,-0.3904955983161926,0.7512878775596619,-0.10117455571889877
1712834511739844600,15.0678447265625,-0.45524731278419495,0.3639993369579315,-0.030314188450574875
1712834511759844600,15.0878447265625,-0.5077817440032959,0.08666650950908661,0.0466548316180706
1712834511779844600,15.1078447265625,-0.5499314665794373,0.015806138515472412,0.10102184116840363
1712834511799844600,15.1278447265625,-0.564592182636261,0.09521862119436264,0.23785565793514252
1712834511819844600,15.1478447265625,-0.64217209815979,0.13431400060653687,0.1981494128704071
1712834511839844900,15.167844970703126,-0.6659958362579346,0.40798163414001465,0.09002626687288284
1712834511859844900,15.187844970703125,-0.6287330389022827,0.6651558876037598,-0.12622003257274628
1712834511879844900,15.207844970703125,-0.36911532282829285,0.8905651569366455,-0.5128977298736572
1712834511899844900,15.227844970703124,0.23808473348617554,1.5582408905029297,-0.9429468512535095
1712834511919844900,15.247844970703126,0.9344711303710938,2.8367817401885986,-1.3039681911468506
1712834511939844600,15.2678447265625,1.1171197891235352,3.7439167499542236,-1.549536108970642
1712834511959844600,15.2878447265625,1.3034337759017944,4.035299301147461,-1.9288833141326904
1712834511979844900,15.307844970703124,1.3297009468078613,3.6681694984436035,-2.3473260402679443
1712834511999844900,15.327844970703126,1.2093604803085327,4.002312660217285,-2.7553839683532715
1712834512019844900,15.347844970703125,0.5648976564407349,4.656549453735352,-3.5678348541259766
1712834512039844900,15.367844970703125,0.13545936346054077,4.411592483520508,-3.524463415145874
1712834512059844900,15.387844970703124,0.07864890247583389,3.258889675140381,-2.290515661239624
1712834512079844600,15.4078447265625,-0.42348232865333557,1.3083970546722412,-1.2453252077102661
1712834512099844600,15.4278447265625,-0.3306308090686798,-1.0947468280792236,-1.453019380569458
1712834512119844600,15.4478447265625,-0.1394299864768982,-2.242562770843506,-1.4377477169036865
1712834512139844600,15.4678447265625,-0.24144448339939117,-1.8345047235488892,-0.9612728357315063
1712834512159844600,15.4878447265625,-0.2652682363986969,-0.6989061832427979,-0.32414036989212036
1712834512179844600,15.5078447265625,-0.33735033869743347,0.7690029740333557,0.12118039280176163
1712834512199844600,15.5278447265625,-0.4607451260089874,1.4330135583877563,0.706389307975769
1712834512219844600,15.5478447265625,-0.4069889783859253,1.1196396350860596,1.3313044309616089
1712834512239844600,15.5678447265625,-0.18096883594989777,0.1935679316520691,1.9195677042007446
1712834512259844600,15.5878447265625,0.1342376321554184,-0.9847911596298218,2.5597543716430664
1712834512279844600,15.6078447265625,0.28267788887023926,-1.584049940109253,2.9391016960144043
1712834512299844600,15.6278447265625,0.21914790570735931,-1.9603428840637207,3.2078824043273926
1712834512319844600,15.6478447265625,-0.1088867336511612,-2.4783565998077393,3.3697617053985596
1712834512339844900,15.667844970703126,-0.735634446144104,-3.1515302658081055,3.1235830783843994
1712834512359844900,15.687844970703125,-1.735010027885437,-4.075769424438477,2.929327964782715
1712834512379844900,15.707844970703125,-2.3263275623321533,-6.158208847045898,2.3367886543273926
1712834512399844900,15.727844970703124,-1.5346461534500122,-8.668865203857422,1.8297704458236694
1712834512419844900,15.747844970703126,-0.451582133769989,-8.637710571289062,2.0203604698181152
1712834512439844600,15.7678447265625,-0.4075998365879059,-6.277938365936279,2.3166301250457764
1712834512459844600,15.7878447265625,-0.8046622276306152,-2.717205047607422,2.041740655899048
1712834512479844900,15.807844970703124,-0.16203200817108154,0.8074874877929688,1.1755337715148926
1712834512499844900,15.827844970703126,0.05115996301174164,2.203925371170044,0.27634015679359436
1712834512519844900,15.847844970703125,0.20265454053878784,3.683441162109375,0.039935316890478134
1712834512539844900,15.867844970703125,0.7683157324790955,4.297971725463867,0.12912164628505707
1712834512559844900,15.887844970703124,1.03037691116333,3.067078113555908,0.08452847599983215
1712834512579844600,15.9078447265625,0.6162103414535522,0.886289119720459,-0.3766747713088989
1712834512599844600,15.9278447265625,0.447000652551651,-0.8302422165870667,-0.7792350053787231
1712834512619844600,15.9478447265625,0.4164573848247528,-1.7373771667480469,-0.8244389891624451
1712834512639844600,15.9678447265625,0.2600758671760559,-1.9841666221618652,-0.748691737651825
1712834512659844600,15.9878447265625,0.1996002197265625,-1.7502052783966064,-0.6259077787399292
1712834512679844600,16.0078447265625,0.2716823220252991,-1.2737303972244263,-0.5336671471595764
1712834512699844600,16.0278447265625,0.2545780837535858,-0.4594470262527466,-0.4542546570301056
1712834512719844600,16.0478447265625,0.06398813426494598,0.6132323741912842,-0.35590535402297974
1712834512739844600,16.0678447265625,-0.09972374886274338,1.1269700527191162,-0.2813797891139984
1712834512759844600,16.0878447265625,-0.22372940182685852,1.2387583255767822,-0.20868684351444244
1712834512779844600,16.1078447265625,-0.33429601788520813,1.1343003511428833,-0.15615242719650269
1712834512799844600,16.1278447265625,-0.4069889783859253,1.0017426013946533,-0.11888964474201202
1712834512819844600,16.1478447265625,-0.4558582007884979,0.8264243006706238,-0.04008803144097328
1712834512839844900,16.167844970703126,-0.5004513263702393,0.6963100433349609,0.039935316890478134
1712834512859844900,16.187844970703125,-0.5151121020317078,0.5197699666023254,0.08636107295751572
1712834512879844900,16.207844970703125,-0.432645320892334,0.5154939293861389,0.11568260937929153
1712834512899844900,16.227844970703124,-0.32391130924224854,0.5765804052352905,0.05642867833375931
1712834512919844900,16.247844970703124,-0.21151208877563477,0.7011969685554504,-0.1506546437740326
1712834512939844600,16.2678447265625,-0.11255192011594772,0.8135961294174194,-0.4188244938850403
1712834512959844600,16.2878447265625,0.375529408454895,0.9962448477745056,-1.0681742429733276
1712834512979844900,16.307844970703126,1.1244502067565918,2.3450353145599365,-1.5825227499008179
1712834512999844900,16.327844970703126,1.6247488260269165,4.4580183029174805,-1.8152624368667603
1712834513019844900,16.347844970703125,1.6687310934066772,6.087806701660156,-1.8928422927856445
1712834513039844900,16.367844970703125,1.469589114189148,6.09269380569458,-1.926439881324768
1712834513059844900,16.387844970703124,0.9075930118560791,4.804989814758301,-2.2721896171569824
1712834513079844600,16.4078447265625,0.4873177409172058,3.351741313934326,-2.7419450283050537
1712834513099844600,16.4278447265625,0.04688390716910362,2.7225501537323,-3.1298444271087646
1712834513119844600,16.4478447265625,-0.26771169900894165,2.354809045791626,-2.550133228302002
1712834513139844600,16.4678447265625,-0.5151121020317078,1.846569299697876,-1.6943111419677734
1712834513159844600,16.4878447265625,-0.8663596510887146,0.47945284843444824,-1.3638330698013306
1712834513179844600,16.5078447265625,-0.7851145267486572,-1.1631637811660767,-1.4676800966262817
1712834513199844600,16.5278447265625,-0.7472409009933472,-1.7062230110168457,-1.2874748706817627
1712834513219844600,16.5478447265625,-0.8510879874229431,-1.138729214668274,-0.7896196842193604
1712834513239844600,16.5678447265625,-1.0667234659194946,-0.19433151185512543,-0.07551821321249008
1712834513259844600,16.5878447265625,-1.2084441184997559,0.6144540905952454,0.687452495098114
1712834513279844600,16.6078447265625,-1.0563386678695679,0.562530517578125,1.4724143743515015
1712834513299844600,16.6278447265625,-0.727082371711731,-0.064217209815979,2.2085068225860596
1712834513319844600,16.6478447265625,-0.39965859055519104,-1.2248611450195312,2.570139169692993
1712834513339844900,16.667844970703126,-0.3061962127685547,-2.7300331592559814,2.516382932662964
1712834513359844900,16.687844970703125,-0.30253100395202637,-4.198553085327148,2.337399482727051
1712834513379844900,16.707844970703125,-0.5432119369506836,-5.962731838226318,2.02830171585083
1712834513399844900,16.727844970703124,-0.8596401214599609,-7.528990268707275,1.9256763458251953
1712834513419844900,16.747844970703124,-0.9347765445709229,-7.419034957885742,2.323960542678833
1712834513439844600,16.7678447265625,-0.7539604306221008,-5.704336166381836,3.2695798873901367
1712834513459844600,16.7878447265625,-0.19379699230194092,-3.884568452835083,3.142519950866699
1712834513479844900,16.807844970703126,-0.027030786499381065,-2.3806183338165283,1.8969656229019165
1712834513499844900,16.827844970703126,-0.28237244486808777,-0.48571422696113586,0.8554404377937317
1712834513519844900,16.847844970703125,-0.25671613216400146,1.759826421737671,0.534736156463623
1712834513539844900,16.867844970703125,0.26251932978630066,3.099453926086426,0.4919756054878235
1712834513559844900,16.887844970703124,0.7096726894378662,3.4305429458618164,0.39790233969688416
1712834513579844600,16.9078447265625,0.7866417169570923,2.6272549629211426,0.3245985209941864
1712834513599844600,16.9278447265625,0.6925684809684753,1.2021064758300781,0.2036471962928772
1712834513619844600,16.9478447265625,0.6284276247024536,-0.24320071935653687,-0.14882203936576843
1712834513639844600,16.9678447265625,0.4714352488517761,-1.3714687824249268,-0.5110651254653931
1712834513659844600,16.9878447265625,0.30344730615615845,-1.7172185182571411,-0.7083746194839478
1712834513679844600,17.0078447265625,0.25763240456581116,-0.9744064211845398,-0.6808856725692749
1712834513699844600,17.0278447265625,0.26862800121307373,0.10499246418476105,-0.6100252866744995
1712834513719844600,17.0478447265625,0.3095559775829315,0.9308822751045227,-0.5568800568580627
1712834513739844600,17.0678447265625,0.27840182185173035,1.3749812841415405,-0.5397757887840271
1712834513759844600,17.0878447265625,0.17699819803237915,1.4953217506408691,-0.4982369542121887
1712834513779844600,17.1078447265625,0.04505131021142006,1.31206214427948,-0.473191499710083
1712834513799844600,17.1278447265625,-0.07895433157682419,0.9693667888641357,-0.43592870235443115
1712834513819844600,17.1478447265625,-0.20784689486026764,0.6370561122894287,-0.33391422033309937
1712834513839844900,17.167844970703126,-0.3355177342891693,0.4214206635951996,-0.18852828443050385
1712834513859844900,17.187844970703125,-0.4027129113674164,0.3658319115638733,-0.08529205620288849
1712834513879844900,17.207844970703125,-0.48456886410713196,0.4763985276222229,-0.02298380434513092
1712834513899844900,17.227844970703124,-0.5505422949790955,0.6052911281585693,-0.022372938692569733
1712834513919844900,17.247844970703124,-0.6195700764656067,0.7262424230575562,-0.04253149405121803
1712834513939844600,17.2678447265625,-0.6598871946334839,0.7592291235923767,-0.04375322163105011
1712834513959844600,17.2878447265625,-0.603687584400177,0.6260605454444885,0.012446379289031029
1712834513979844900,17.307844970703126,-0.5145012736320496,0.41836634278297424,0.05520694702863693
1712834513999844900,17.327844970703126,-0.44486260414123535,0.10438159853219986,-0.06391177326440811
1712834514019844900,17.347844970703125,-0.3349068760871887,-0.2651918828487396,-0.5110651254653931
1712834514039844900,17.367844970703125,-0.1437060534954071,0.09338602423667908,-0.9808205366134644
1712834514059844900,17.387844970703124,0.09758572280406952,1.1672871112823486,-1.3235158920288086
1712834514079844600,17.4078447265625,0.5954409241676331,2.4928646087646484,-1.6216181516647339
1712834514099844600,17.4278447265625,1.0083857774734497,3.4445927143096924,-1.803655982017517
1712834514119844600,17.4478447265625,1.3547463417053223,3.737197160720825,-1.9142225980758667
1712834514139844600,17.4678447265625,1.504408359527588,3.8642570972442627,-2.5159249305725098
1712834514159844600,17.4878447265625,1.2997685670852661,4.091498851776123,-3.191541910171509
1712834514179844600,17.5078447265625,0.9472993016242981,3.772627353668213,-3.2599587440490723
1712834514199844600,17.5278447265625,0.4879286289215088,3.0237066745758057,-2.0803780555725098
1712834514219844600,17.5478447265625,0.015118914656341076,1.2845731973648071,-1.1500301361083984
1712834514239844600,17.5678447265625,0.03405573591589928,-1.4295010566711426,-1.4059827327728271
1712834514259844600,17.5878447265625,-0.033139441162347794,-2.619466543197632,-1.2673163414001465
1712834514279844600,17.6078447265625,-0.28787025809288025,-2.0959548950195312,-0.63507080078125
1712834514299844600,17.6278447265625,-0.3770565688610077,-0.7966446280479431,0.19998200237751007
1712834514319844600,17.6478447265625,-0.12476922571659088,0.44768786430358887,0.4767039716243744
1712834514339844900,17.667844970703126,-0.1388191282749176,1.1917216777801514,0.933631181716919
1712834514359844900,17.687844970703125,-0.22189679741859436,1.4812718629837036,1.7528014183044434
1712834514379844900,17.707844970703125,-0.03375030308961868,0.6865361928939819,2.4992787837982178
1712834514399844900,17.727844970703124,0.2814561724662781,-0.540081262588501,2.9177215099334717
1712834514419844900,17.747844970703124,0.34987306594848633,-1.5119678974151611,3.105867862701416
1712834514439844600,17.7678447265625,0.0731511116027832,-2.4539220333099365,3.2207107543945312
1712834514459844600,17.7878447265625,-0.3904955983161926,-3.3842697143554688,3.2970688343048096
1712834514479844900,17.807844970703126,-1.0673342943191528,-4.334165096282959,3.0569987297058105
1712834514499844900,17.827844970703126,-1.6537649631500244,-5.858273983001709,2.4058163166046143
1712834514519844900,17.847844970703125,-1.0465649366378784,-8.16795539855957,1.598252534866333
1712834514539844900,17.867844970703125,-0.26282477378845215,-8.043950080871582,2.0020344257354736
1712834514559844900,17.887844970703124,-0.05207626149058342,-4.780097007751465,2.6825382709503174
1712834514579844600,17.9078447265625,-0.23716843128204346,-2.014709949493408,2.5127177238464355
1712834514599844600,17.9278447265625,0.3517056703567505,1.900936245918274,0.9489027857780457
1712834514619844600,17.9478447265625,0.16294831037521362,2.547231674194336,0.44371724128723145
1712834514639844600,17.9678447265625,0.7609853744506836,3.1147255897521973,0.11629346758127213
1712834514659844600,17.9878447265625,1.412778615951538,2.9235246181488037,0.09124799817800522
1712834514679844600,18.0078447265625,1.2270755767822266,1.531362771987915,-0.027870727702975273
1712834514699844600,18.0278447265625,0.9656252264976501,-0.2462550550699234,-0.40110939741134644
1712834514719844600,18.0478447265625,0.7389942407608032,-1.373301386833191,-0.614912211894989
1712834514739844600,18.0678447265625,0.4964807331562042,-1.8381699323654175,-0.6717227101325989
1712834514759844600,18.0878447265625,0.4384485185146332,-1.6170367002487183,-0.6362925171852112
1712834514779844600,18.1078447265625,0.31810808181762695,-0.9328675866127014,-0.5000695586204529
1712834514799844600,18.1278447265625,0.13057245314121246,-0.026343563571572304,-0.34063372015953064
1712834514819844600,18.1478447265625,-0.07223481684923172,0.6260605454444885,-0.25511258840560913
1712834514839844900,18.167844970703126,-0.2921462953090668,0.9351583123207092,-0.2978731691837311
1712834514859844900,18.187844970703125,-0.4161519408226013,0.9369909167289734,-0.33391422033309937
1712834514879844900,18.207844970703125,-0.5145012736320496,0.8349764347076416,-0.2874884605407715
1712834514899844900,18.227844970703124,-0.6024658679962158,0.6865361928939819,-0.16836974024772644
1712834514919844900,18.247844970703124,-0.6385068893432617,0.3908773958683014,-0.05719225853681564
1712834514939844600,18.2678447265625,-0.6311765313148499,0.055512379854917526,-0.004046982154250145
1712834514959844600,18.2878447265625,-0.623235285282135,-0.13874277472496033,0.0020616701804101467
1712834514979844900,18.307844970703126,-0.612850546836853,-0.1051451787352562,0.0038942659739404917
1712834514999844900,18.327844970703126,-0.6159048676490784,0.11598803848028183,0.0264962799847126
1712834515019844900,18.347844970703125,-0.6488916277885437,0.23266330361366272,0.03504839166998863
1712834515039844900,18.367844970703125,-0.6055201888084412,0.2735912799835205,0.022220224142074585
1712834515059844900,18.387844970703124,-0.5346598029136658,0.2748129963874817,-0.16898059844970703
1712834515079844600,18.4078447265625,0.00045814894838258624,0.5955172777175903,-0.8476518988609314
1712834515099844600,18.4278447265625,0.6815729141235352,1.8325194120407104,-1.2233339548110962
1712834515119844600,18.4478447265625,1.0456485748291016,3.3975560665130615,-1.3723851442337036
1712834515139844600,18.4678447265625,1.182482361793518,4.560643672943115,-1.5238797664642334
1712834515159844600,18.4878447265625,1.180649757385254,4.767116069793701,-1.7101936340332031
1712834515179844600,18.5078447265625,0.9699012637138367,4.312021255493164,-2.0406718254089355
1712834515199844600,18.5278447265625,0.6443101167678833,4.182518005371094,-2.5715136528015137
1712834515219844600,18.5478447265625,-0.08445212244987488,3.9888737201690674,-3.343036413192749
1712834515239844600,18.5678447265625,-0.10766500234603882,3.2375094890594482,-2.737058162689209
1712834515259844600,18.5878447265625,-0.2102903574705124,2.3260984420776367,-1.1744648218154907
1712834515279844600,18.6078447265625,-0.7002043128013611,0.5619196891784668,-0.5916993618011475
1712834515299844600,18.6278447265625,-0.42348232865333557,-1.517465591430664,-0.9618836641311646
1712834515319844600,18.6478447265625,-0.15592335164546967,-2.3671791553497314,-0.8745299577713013
1712834515339844900,18.667844970703126,-0.047800205647945404,-1.7893006801605225,-0.28504499793052673
1712834515359844900,18.687844970703125,-0.050854530185461044,-0.40630173683166504,0.4052327275276184
1712834515379844900,18.707844970703125,-0.07528914511203766,0.7964919209480286,1.09428870677948
1712834515399844900,18.727844970703124,0.04932736977934837,1.0640509128570557,1.638569712638855
1712834515419844900,18.747844970703124,0.30222558975219727,0.553367555141449,2.0942752361297607
1712834515439844600,18.7678447265625,0.4873177409172058,-0.40080395340919495,2.5402066707611084
1712834515459844600,18.7878447265625,0.47021353244781494,-1.6866753101348877,2.7668378353118896
1712834515479844900,18.807844970703126,0.1892155110836029,-3.1936798095703125,2.6917014122009277
1712834515499844900,18.827844970703126,-0.5542075037956238,-4.496655464172363,2.340453863143921
1712834515519844900,18.847844970703125,-1.3183999061584473,-5.905921459197998,2.019138813018799
1712834515539844900,18.867844970703125,-0.8596401214599609,-8.437957763671875,1.182253360748291
1712834515559844900,18.887844970703124,-0.128434419631958,-8.339609146118164,1.1816424131393433
1712834515579844600,18.9078447265625,0.07925976812839508,-5.562615394592285,2.268371820449829
1712834515599844600,18.9278447265625,0.04077525436878204,-2.193082571029663,2.628782272338867
1712834515619844600,18.9478447265625,0.08109235763549805,0.19601137936115265,1.4718034267425537
1712834515639844600,18.9678447265625,0.1690569519996643,2.284559726715088,0.22502748668193817
1712834515659844600,18.9878447265625,-0.0025961773935705423,2.87099027633667,-0.05780312418937683
1712834515679844600,19.0078447265625,0.6125451326370239,3.7805685997009277,-0.02848159149289131
1712834515699844600,19.0278447265625,1.0743592977523804,3.259500503540039,0.06620252132415771
1712834515719844600,19.0478447265625,0.8092437386512756,1.0292315483093262,-0.14149166643619537
1712834515739844600,19.0678447265625,0.4970915913581848,-1.19370698928833,-0.5348888635635376
1712834515759844600,19.0878447265625,0.3107776939868927,-2.2859342098236084,-0.7602981328964233
1712834515779844600,19.1078447265625,0.1635591685771942,-2.2700517177581787,-0.8458192944526672
1712834515799844600,19.1278447265625,0.17150041460990906,-1.5877151489257812,-0.6265186667442322
1712834515819844600,19.1478447265625,0.19654589891433716,-0.9316458702087402,-0.3681226670742035
1712834515839844900,19.167844970703126,0.0780380368232727,-0.3733150362968445,-0.220904141664505
1712834515859844900,19.187844970703125,-0.0685696229338646,0.15630514919757843,-0.20257818698883057
1712834515879844900,19.207844970703125,-0.09728029370307922,0.4800637364387512,-0.2911536395549774
1712834515899844900,19.227844970703124,-0.13515393435955048,0.6370561122894287,-0.373009592294693
1712834515919844900,19.247844970703124,-0.20601430535316467,0.7659486532211304,-0.35040757060050964
1712834515939844600,19.2678447265625,-0.2860376536846161,0.8539132475852966,-0.2471713423728943
1712834515959844600,19.2878447265625,-0.3312416672706604,0.8087092041969299,-0.15370896458625793
1712834515979844900,19.307844970703126,-0.34162637591362,0.6902013421058655,-0.10422888398170471
1712834515999844900,19.327844970703126,-0.44547349214553833,0.5857434272766113,-0.08040513843297958
1712834516019844900,19.347844970703125,-0.5920811295509338,0.544204592704773,-0.08345946669578552
1712834516039844900,19.367844970703125,-0.7502952218055725,0.41836634278297424,-0.03153591975569725
1712834516059844900,19.387844970703124,-0.8126034736633301,0.12942707538604736,-0.027870727702975273
1712834516079844600,19.4078447265625,-0.7283040881156921,-0.015347989276051521,-0.060246583074331284
1712834516099844600,19.4278447265625,-0.5804746747016907,0.08605564385652542,-0.24228443205356598
1712834516119844600,19.4478447265625,-0.21273382008075714,0.20761781930923462,-0.6625596880912781
1712834516139844600,19.4678447265625,0.27840182185173035,1.0475575923919678,-1.0382418632507324
1712834516159844600,19.4878447265625,0.5777258276939392,2.541733980178833,-1.3198506832122803
1712834516179844600,19.5078447265625,0.7774787545204163,3.6266305446624756,-1.614898681640625
1712834516199844600,19.5278447265625,0.915534257888794,4.166024684906006,-1.795103907585144
1712834516219844600,19.5478447265625,0.8556694984436035,3.8465421199798584,-1.9869155883789062
1712834516239844600,19.5678447265625,0.7658722996711731,3.0316479206085205,-2.4401776790618896
1712834516259844600,19.5878447265625,0.6937901973724365,2.8447229862213135,-2.812805414199829
1712834516279844600,19.6078447265625,0.42439863085746765,3.1745903491973877,-3.6936731338500977
1712834516299844600,19.6278447265625,-0.28359419107437134,3.5728745460510254,-3.529961109161377
1712834516319844600,19.6478447265625,-0.4271475374698639,3.114114761352539,-2.0913734436035156
1712834516339844900,19.667844970703126,-0.43508878350257874,1.2405909299850464,-1.1677452325820923
1712834516359844900,19.687844970703125,-0.44425174593925476,-1.0141127109527588,-1.39559805393219
1712834516379844900,19.707844970703125,-0.20784689486026764,-2.3696227073669434,-1.2086732387542725
1712834516399844900,19.727844970703124,-0.2396118938922882,-2.1668152809143066,-0.5080108046531677
1712834516419844900,19.747844970703124,-0.21823160350322723,-1.119181513786316,0.12362385541200638
1712834516439844600,19.7678447265625,-0.16325373947620392,0.19417878985404968,0.6178138256072998
1712834516459844600,19.7878447265625,-0.16142113506793976,1.2027173042297363,1.179809808731079
1712834516479844900,19.807844970703126,-0.05207626149058342,1.1923326253890991,1.9128481149673462
1712834516499844900,19.827844970703126,0.06215553730726242,0.5790238976478577,2.620230197906494
1712834516519844900,19.847844970703125,0.2900082767009735,-0.4600578844547272,3.2213215827941895
1712834516539844900,19.867844970703125,0.38469240069389343,-1.5907694101333618,3.3434946537017822
1712834516559844900,19.887844970703124,-0.04657847434282303,-2.720259189605713,3.197497844696045
1712834516579844600,19.9078447265625,-0.8071057200431824,-3.722078323364258,3.1064789295196533
1712834516599844600,19.9278447265625,-1.5664112567901611,-5.315825939178467,2.8761825561523438
1712834516619844600,19.9478447265625,-1.6293302774429321,-8.189947128295898,2.19873309135437
1712834516639844600,19.9678447265625,-1.0374019145965576,-9.279729843139648,1.6617825031280518
1712834516659844600,19.9878447265625,-0.7252497673034668,-6.887581825256348,2.399707794189453
1712834516679844600,20.0078447265625,-0.5908594131469727,-3.798436403274536,2.709416389465332
1712834516699844600,20.0278447265625,-0.19685132801532745,-0.9542478919029236,1.6813302040100098
1712834516719844600,20.0478447265625,0.05971207842230797,1.123915672302246,0.3765220642089844
1712834516739844600,20.0678447265625,-0.09178250283002853,2.577775001525879,0.15355625748634338
1712834516759844600,20.0878447265625,0.6278167366981506,3.909461259841919,0.12606731057167053
1712834516779844600,20.1078447265625,1.1311696767807007,3.59669828414917,0.15172365307807922
1712834516799844600,20.1278447265625,0.7841982841491699,2.0218875408172607,-0.012599095702171326
1712834516819844600,20.1478447265625,0.5728389024734497,0.2387719452381134,-0.5422192811965942
1712834516839844900,20.167844970703126,0.5655084848403931,-0.8021424412727356,-0.6680575013160706
1712834516859844900,20.187844970703125,0.2906191349029541,-1.3213778734207153,-0.49090659618377686
1712834516879844900,20.207844970703125,0.1745547503232956,-1.7978527545928955,-0.3931681513786316
1712834516899844900,20.227844970703124,0.2301434874534607,-1.8448894023895264,-0.3681226670742035
1712834516919844900,20.247844970703124,0.16539175808429718,-1.375133991241455,-0.3259729743003845
1712834516939844900,20.267844970703123,0.016951510682702065,-0.36476290225982666,-0.23984096944332123
1712834516959844900,20.287844970703127,-0.019089538604021072,0.41897720098495483,-0.21357376873493195
1712834516979845000,20.30784521484375,-0.009926560334861279,0.9809732437133789,-0.19952386617660522
1712834516999845000,20.32784521484375,-0.01725694350898266,1.3352750539779663,-0.19280433654785156
1712834517019845000,20.34784521484375,-0.07040221989154816,1.558851718902588,-0.1610393524169922
1712834517039844000,20.367843994140625,-0.22861631214618683,1.5936710834503174,-0.09506590664386749
1712834517059844400,20.38784423828125,-0.38988474011421204,1.2735776901245117,-0.07368562370538712
1712834517079844000,20.407843994140624,-0.47051894664764404,0.8160396218299866,-0.1256091594696045
1712834517099844000,20.427843994140623,-0.46013423800468445,0.38171443343162537,-0.10850493609905243
1712834517119844000,20.447843994140626,-0.4625777006149292,0.1172097697854042,-0.039477165788412094
1712834517139843800,20.46784375,-0.4674646258354187,0.002367102773860097,-0.12744176387786865
1712834517159843800,20.48784375,-0.33857205510139465,0.13431400060653687,-0.4023311138153076
1712834517179843800,20.50784375,-0.07162395119667053,0.6847035884857178,-0.8122217059135437
1712834517199843800,20.52784375,0.3474296033382416,2.042046070098877,-1.1255955696105957
1712834517219843800,20.54784375,0.8684976696968079,3.384727954864502,-1.3949871063232422
1712834517239843300,20.56784326171875,1.1452195644378662,3.917402505874634,-1.6179529428482056
1712834517259843000,20.587843017578123,1.2851077318191528,3.7274234294891357,-1.8922314643859863
1712834517279843000,20.607843017578126,1.3156510591506958,2.882596731185913,-2.1885011196136475
1712834517299843000,20.627843017578126,1.4665347337722778,2.4116196632385254,-2.374204158782959
1712834517319843000,20.647843017578126,1.7750216722488403,2.8367817401885986,-3.0766992568969727
1712834517339843000,20.667843017578125,0.822682797908783,3.8966331481933594,-3.300886631011963
1712834517359843000,20.687843017578125,0.21792617440223694,4.129983425140381,-2.3784801959991455
1712834517379843000,20.707843017578124,0.18799377977848053,2.781804084777832,-1.5935183763504028
1712834517399843000,20.727843017578124,-0.023365596309304237,0.7060838937759399,-1.4536302089691162
1712834517419843000,20.747843017578123,0.03039054572582245,-1.4295010566711426,-1.270370602607727
1712834517439842800,20.7678427734375,-0.10949759185314178,-1.796631097793579,-0.7993935346603394
1712834517459842800,20.7878427734375,-0.20051652193069458,-1.2492958307266235,-0.2905427813529968
1712834517479843000,20.807843017578126,-0.32940909266471863,-0.06177374720573425,0.23235787451267242
1712834517499843000,20.827843017578125,-0.4558582007884979,1.0628291368484497,0.6336963176727295
1712834517519843000,20.847843017578125,-0.5065600275993347,1.3028992414474487,0.9293550848960876
1712834517539843000,20.867843017578124,-0.43936482071876526,0.9870818853378296,1.352684736251831
1712834517559843000,20.887843017578124,-0.31780263781547546,0.2693152129650116,2.0570123195648193
1712834517579842800,20.9078427734375,-0.22250767052173615,-0.8516225218772888,2.6330583095550537
1712834517599842800,20.9278427734375,-0.17608191072940826,-2.0660226345062256,2.904282331466675
1712834517619842800,20.9478427734375,-0.33796119689941406,-3.2688162326812744,2.8890109062194824
1712834517639843800,20.96784375,-0.8761335015296936,-4.266970157623291,2.722855567932129
1712834517659843300,20.98784326171875,-1.6061174869537354,-5.093470573425293,2.461405038833618
1712834517679843300,21.00784326171875,-1.933541178703308,-6.215019226074219,1.9159024953842163
1712834517699843300,21.02784326171875,-1.6885842084884644,-6.954777240753174,1.5359443426132202
1712834517719843300,21.04784326171875,-1.352608323097229,-5.601710796356201,1.9464457035064697
1712834517739843800,21.06784375,-0.70692378282547,-3.195512533187866,2.5011112689971924
1712834517759843800,21.08784375,-0.574976921081543,-1.6567429304122925,2.2414937019348145
1712834517779843800,21.10784375,-0.38377609848976135,-0.5761222839355469,1.2824351787567139
1712834517799843800,21.12784375,-0.3721696436405182,-0.04772384837269783,0.45288023352622986
1712834517819843800,21.14784375,-0.3116939961910248,0.4446335434913635,0.20486892759799957
1712834517839844400,21.16784423828125,0.35781431198120117,1.6938530206680298,0.23785565793514252
1712834517859844900,21.187844970703125,0.8544477820396423,1.9534707069396973,0.3588069677352905
1712834517879844900,21.207844970703125,0.7499898076057434,0.9003390073776245,0.08941540122032166
1712834517899844900,21.227844970703124,0.6675229668617249,-0.11736248433589935,-0.4194353520870209
1712834517919844900,21.247844970703124,0.6259841322898865,-0.7239516973495483,-0.5293911099433899
1712834517939844600,21.2678447265625,0.47937649488449097,-0.9988410472869873,-0.38461601734161377
1712834517959844600,21.2878447265625,0.5209153294563293,-0.9469174742698669,-0.391946405172348
1712834517979844900,21.307844970703126,0.5881105065345764,-0.6506478190422058,-0.42065706849098206
1712834517999844900,21.327844970703126,0.49586987495422363,-0.21326832473278046,-0.3968333303928375
1712834518019844900,21.347844970703125,0.3718642294406891,0.3811035454273224,-0.3565162420272827
1712834518039844900,21.367844970703125,0.28878653049468994,0.9418778419494629,-0.3180317282676697
1712834518059844900,21.387844970703124,0.19532416760921478,1.3536009788513184,-0.2777146100997925
1712834518079844600,21.4078447265625,0.06887505948543549,1.5502996444702148,-0.25999951362609863
1712834518099844600,21.4278447265625,-0.058795779943466187,1.503262996673584,-0.26366472244262695
1712834518119844600,21.4478447265625,-0.17119498550891876,1.2424235343933105,-0.2264019250869751
1712834518139844600,21.4678447265625,-0.2658790946006775,0.8227591514587402,-0.1659262776374817
1712834518159844600,21.4878447265625,-0.3367394804954529,0.40309470891952515,-0.12377656996250153
1712834518179844600,21.5078447265625,-0.432645320892334,0.17035505175590515,-0.023594669997692108
1712834518199844600,21.5278447265625,-0.4069889783859253,0.10621419548988342,0.04054617881774902
1712834518219844600,21.5478447265625,-0.39904773235321045,0.1483639031648636,0.05581781268119812
1712834518239844600,21.5678447265625,-0.4259257912635803,0.25160011649131775,-0.19708040356636047
1712834518259844600,21.5878447265625,-0.29336804151535034,0.330401748418808,-0.6362925171852112
1712834518279844600,21.6078447265625,-0.047189339995384216,1.010294795036316,-1.0767263174057007
1712834518299844600,21.6278447265625,0.4109596014022827,2.3590853214263916,-1.4120913743972778
1712834518319844600,21.6478447265625,0.9527970552444458,3.538055181503296,-1.6155095100402832
1712834518339844900,21.667844970703126,1.2264647483825684,4.318130016326904,-1.5519795417785645
1712834518359844900,21.687844970703125,1.306488037109375,4.070729732513428,-1.5849661827087402
1712834518379844900,21.707844970703125,1.2649492025375366,3.671834707260132,-1.6814829111099243
1712834518399844900,21.727844970703124,1.2985467910766602,3.516674757003784,-1.8006017208099365
1712834518419844900,21.747844970703124,0.983340322971344,3.9638283252716064,-2.435901641845703
1712834518439844600,21.7678447265625,0.3107776939868927,4.203287601470947,-2.647260904312134
1712834518459844600,21.7878447265625,-0.08689557760953903,3.5533268451690674,-1.9111683368682861
1712834518479844900,21.807844970703126,-0.27809640765190125,1.6003905534744263,-0.928286075592041
1712834518499844900,21.827844970703126,-0.4021020531654358,-0.6677520871162415,-0.8586474657058716
1712834518519844900,21.847844970703125,-0.27259862422943115,-2.186974048614502,-0.9246209263801575
1712834518539844900,21.867844970703125,-0.31291571259498596,-2.190028190612793,-0.5745950937271118
1712834518559844900,21.887844970703124,-0.4259257912635803,-1.1478921175003052,0.11690433323383331
1712834518579844600,21.9078447265625,-0.5658139586448669,0.14530956745147705,0.7137196660041809
1712834518599844600,21.9278447265625,-0.5371032953262329,0.7958810329437256,1.1828641891479492
1712834518619844600,21.9478447265625,-0.3917173445224762,0.5521458387374878,1.5664875507354736
1712834518639844600,21.9678447265625,-0.24266621470451355,-0.2706896662712097,1.977599859237671
1712834518659844600,21.9878447265625,-0.10094548016786575,-1.337260365486145,2.3844361305236816
1712834518679844600,22.0078447265625,-0.13698652386665344,-2.4991259574890137,2.6464972496032715
1712834518699844600,22.0278447265625,-0.4118759036064148,-3.6292266845703125,2.7265207767486572
1712834518719844600,22.0478447265625,-0.9097310900688171,-4.493601322174072,2.58052396774292
1712834518739844600,22.0678447265625,-1.751503348350525,-5.506415843963623,2.3526711463928223
1712834518759844600,22.0878447265625,-1.466840147972107,-7.062289237976074,1.5261704921722412
1712834518779844600,22.1078447265625,-0.3623957931995392,-6.778237342834473,1.058247685432434
1712834518799844600,22.1278447265625,-0.5230533480644226,-4.736114501953125,2.045405864715576
1712834518819844600,22.1478447265625,-0.49556443095207214,-1.774029016494751,2.703918695449829
1712834518839844900,22.167844970703126,-0.2664899528026581,-0.8546768426895142,1.5237269401550293
1712834518859844900,22.187844970703125,0.20082195103168488,0.6993643641471863,0.3197115957736969
1712834518879844900,22.207844970703125,0.23808473348617554,1.6040557622909546,0.17615826427936554
1712834518899844900,22.227844970703124,0.8562803864479065,2.846555709838867,0.33131805062294006
1712834518919844900,22.247844970703124,1.2857186794281006,2.348700523376465,0.35697436332702637
1712834518939844600,22.2678447265625,1.08718740940094,0.772057294845581,-0.08162686973810196
1712834518959844600,22.2878447265625,1.0224356651306152,-0.7575492858886719,-0.7914522886276245
1712834518979844900,22.307844970703126,0.9656252264976501,-1.4496595859527588,-0.9795987606048584
1712834518999844900,22.327844970703126,0.688903272151947,-1.5541175603866577,-0.7841218709945679
1712834519019844900,22.347844970703125,0.5936083197593689,-1.338482141494751,-0.5788711905479431
1712834519039844900,22.367844970703125,0.6473644375801086,-0.9072112441062927,-0.5049564838409424
1712834519059844900,22.387844970703124,0.5648976564407349,-0.2260964959859848,-0.41149410605430603
1712834519079844600,22.4078447265625,0.3303253948688507,0.5759695768356323,-0.33391422033309937
1712834519099844600,22.4278447265625,0.05971207842230797,1.123304843902588,-0.30398181080818176
1712834519119844600,22.4478447265625,-0.16630806028842926,1.3939181566238403,-0.28015807271003723
1712834519139844600,22.4678447265625,-0.28787025809288025,1.4409548044204712,-0.24045182764530182
1712834519159844600,22.4878447265625,-0.37339138984680176,1.3645966053009033,-0.22334760427474976
1712834519179844600,22.5078447265625,-0.4528038501739502,1.189278244972229,-0.18180876970291138
1712834519199844600,22.5278447265625,-0.5114469528198242,0.8746826648712158,-0.1249983012676239
1712834519219844600,22.5478447265625,-0.564592182636261,0.49472448229789734,-0.04375322163105011
1712834519239844600,22.5678447265625,-0.5682573914527893,0.17402023077011108,0.03260493278503418
1712834519259844600,22.5878447265625,-0.5236642360687256,-0.0593302883207798,0.0417679101228714
1712834519279844600,22.6078447265625,-0.4992296099662781,-0.18211419880390167,0.030772335827350616
1712834519299844600,22.6278447265625,-0.593302845954895,-0.3232240676879883,-0.1549306958913803
1712834519319844600,22.6478447265625,-0.4259257912635803,-0.3470478057861328,-0.5910884737968445
1712834519339844900,22.667844970703126,-0.05268712714314461,0.5454263091087341,-1.0321332216262817
1712834519359844900,22.687844970703125,0.34315356612205505,2.119626045227051,-1.309466004371643
1712834519379844900,22.707844970703125,0.7194465398788452,3.2466723918914795,-1.508608102798462
1712834519399844900,22.727844970703124,1.1635456085205078,3.544163703918457,-1.7993799448013306
1712834519419844900,22.747844970703124,1.3449726104736328,3.1525990962982178,-1.982028603553772
1712834519439844600,22.7678447265625,1.1183415651321411,2.8172340393066406,-1.9716439247131348
1712834519459844600,22.7878447265625,0.9039278626441956,2.446439027786255,-2.270967960357666
1712834519479844900,22.807844970703126,0.7811439037322998,2.338315725326538,-2.302122116088867
1712834519499844900,22.827844970703126,0.727998673915863,2.974837303161621,-2.729116916656494
1712834519519844900,22.847844970703125,0.45066583156585693,3.3254740238189697,-2.8415160179138184
1712834519539844900,22.867844970703125,-0.039248090237379074,3.1654274463653564,-1.5128841400146484
1712834519559844900,22.887844970703124,-0.26771169900894165,1.5087608098983765,-0.49212831258773804
1712834519579844600,22.9078447265625,-0.11194105446338654,-0.7960337996482849,-0.6497315168380737
1712834519599844600,22.9278447265625,0.13545936346054077,-2.18147611618042,-0.8116108179092407
1712834519619844600,22.9478447265625,0.005345070734620094,-2.0073795318603516,-0.3485749661922455
1712834519639844600,22.9678447265625,-0.26343563199043274,-0.6958518624305725,0.36858081817626953
1712834519659844600,22.9878447265625,-0.2194533348083496,0.47823113203048706,0.9684504866600037
1712834519679844600,23.0078447265625,-0.14309518039226532,0.9669232964515686,1.4485905170440674
1712834519699844600,23.0278447265625,-0.21395555138587952,0.8545241355895996,1.9543869495391846
1712834519719844600,23.0478447265625,-0.18280142545700073,0.04879286140203476,2.4418575763702393
1712834519739844600,23.0678447265625,-0.1033889427781105,-1.166828989982605,2.7362945079803467
1712834519759844600,23.0878447265625,-0.2200642079114914,-2.5962536334991455,3.1907782554626465
1712834519779844600,23.1078447265625,-0.4112650156021118,-3.5675294399261475,3.3642640113830566
1712834519799844600,23.1278447265625,-1.0264062881469727,-4.51986837387085,3.2213215827941895
1712834519819844600,23.1478447265625,-1.6574301719665527,-5.5943803787231445,2.7839419841766357
1712834519839844900,23.167844970703126,-1.4069753885269165,-6.913238525390625,1.893911361694336
1712834519859844900,23.187844970703125,-0.8736900091171265,-6.781291484832764,1.7399733066558838
1712834519879844900,23.207844970703125,-0.2597704529762268,-4.267580986022949,2.153529167175293
1712834519899844900,23.227844970703124,-0.03497203439474106,-1.7288249731063843,2.4229207038879395
1712834519919844900,23.247844970703124,-0.3507893681526184,-0.1198059469461441,1.511509656906128
1712834519939844600,23.2678447265625,-0.2353358417749405,1.208825945854187,0.629420280456543
1712834519959844600,23.2878447265625,-0.0007635815418325365,1.8361846208572388,0.2482403665781021
1712834519979844900,23.307844970703126,0.7750352621078491,2.4617106914520264,0.0417679101228714
1712834519999844900,23.327844970703126,1.0346530675888062,1.9821813106536865,-0.0339793786406517
1712834520019844900,23.347844970703125,0.8281805515289307,0.6291148662567139,-0.2978731691837311
1712834520039844900,23.367844970703125,0.707840085029602,-0.6164394021034241,-0.6955464482307434
1712834520059844900,23.387844970703124,0.5007568001747131,-1.2266937494277954,-0.8372671604156494
1712834520079844600,23.4078447265625,0.275347501039505,-1.3610841035842896,-0.7835110425949097
1712834520099844600,23.4278447265625,0.26740625500679016,-1.1973721981048584,-0.6924921274185181
1712834520119844600,23.4478447265625,0.33276882767677307,-0.871781051158905,-0.5892558693885803
1712834520139844600,23.4678447265625,0.32971450686454773,-0.3012329339981079,-0.5049564838409424
1712834520159844600,23.4878447265625,0.23136521875858307,0.45318564772605896,-0.3840051591396332
1712834520179844600,23.5078447265625,0.11652254313230515,0.9223301410675049,-0.282601535320282
1712834520199844600,23.5278447265625,0.03222314268350601,1.0866528749465942,-0.24411702156066895
1712834520219844600,23.5478447265625,-0.05207626149058342,1.102535367012024,-0.2624429762363434
1712834520239844600,23.5678447265625,-0.1840231567621231,1.0322859287261963,-0.21784982085227966
1712834520259844600,23.5878447265625,-0.26404649019241333,0.8184830546379089,-0.16959145665168762
1712834520279844600,23.6078447265625,-0.3208569586277008,0.5393176674842834,-0.12133310735225677
1712834520299844600,23.6278447265625,-0.31841349601745605,0.31146490573883057,-0.1201113760471344
1712834520319844600,23.6478447265625,-0.280539870262146,0.08544477820396423,-0.1500437706708908
1712834520339844900,23.667844970703126,-0.27382034063339233,0.09888381510972977,-0.15248723328113556
1712834520359844900,23.687844970703125,-0.32330042123794556,0.18623754382133484,-0.2972623109817505
1712834520379844900,23.707844970703125,-0.2915354371070862,0.39209914207458496,-0.6356816291809082
1712834520399844900,23.727844970703124,0.06887505948543549,0.9950231313705444,-1.03274405002594
1712834520419844900,23.747844970703124,0.7359399199485779,2.1098523139953613,-1.3216832876205444
1712834520439844600,23.7678447265625,1.077413558959961,3.161762237548828,-1.5244905948638916
1712834520459844600,23.7878447265625,1.161102056503296,3.859981060028076,-1.7382934093475342
1712834520479844900,23.807844970703126,1.1012372970581055,3.868533134460449,-1.9905807971954346
1712834520499844900,23.827844970703126,0.935081958770752,3.5233943462371826,-2.6185503005981445
1712834520519844900,23.847844970703125,0.6803511381149292,4.093942642211914,-3.1799354553222656
1712834520539844900,23.867844970703125,0.07437284290790558,4.065842628479004,-3.6240344047546387
1712834520559844900,23.887844970703124,-0.12476922571659088,3.0456976890563965,-2.8806114196777344
1712834520579844600,23.9078447265625,-0.21151208877563477,1.6474272012710571,-1.8006017208099365
1712834520599844600,23.9278447265625,-0.7289149761199951,-0.40569087862968445,-1.3186290264129639
1712834520619844600,23.9478447265625,-0.4943426847457886,-2.271273374557495,-1.3736069202423096
1712834520639844600,23.9678447265625,-0.22128593921661377,-2.723924398422241,-1.2691489458084106
1712834520659844600,23.9878447265625,-0.31230485439300537,-1.796631097793579,-0.7297548651695251
1712834520679844600,24.0078447265625,-0.43936482071876526,-0.2554180324077606,-0.12133310735225677
1712834520699844600,24.0278447265625,-0.5108360648155212,1.3236685991287231,0.396680623292923
1712834520719844600,24.0478447265625,-0.46563202142715454,1.5460236072540283,0.8719337582588196
1712834520739844600,24.0678447265625,-0.23411411046981812,1.010294795036316,1.4608079195022583
1712834520759844600,24.0878447265625,0.05726861581206322,0.2699260711669922,2.0570123195648193
1712834520779844600,24.1078447265625,0.26801711320877075,-0.2981785833835602,2.6312255859375
1712834520799844600,24.1278447265625,0.3572034537792206,-0.8131380081176758,3.0985376834869385
1712834520819844600,24.1478447265625,0.13668109476566315,-1.841224193572998,3.177950143814087
1712834520839844600,24.1678447265625,-0.2396118938922882,-2.8888580799102783,3.055777072906494
1712834520859844600,24.1878447265625,-0.6317873597145081,-4.77826452255249,2.611677885055542
1712834520879844600,24.2078447265625,-0.8962920308113098,-6.962718486785889,2.0857229232788086
1712834520899844600,24.2278447265625,-1.0587822198867798,-7.5790815353393555,1.7937294244766235
1712834520919844600,24.2478447265625,-1.0667234659194946,-4.984736919403076,2.0325777530670166
1712834520939844600,24.2678447265625,0.015118914656341076,-2.304260015487671,2.2891411781311035
1712834520959844600,24.2878447265625,0.13057245314121246,-1.1124619245529175,2.027690887451172
1712834520979844900,24.307844970703126,0.2301434874534607,-0.5993351340293884,0.8859837055206299
1712834520999844900,24.327844970703126,0.3065016269683838,0.35789066553115845,0.1877647042274475
1712834521019844900,24.347844970703125,0.3162754774093628,1.7848719358444214,0.16516269743442535
1712834521039844900,24.367844970703125,0.6113234162330627,2.5796074867248535,0.22747094929218292
1712834521059844900,24.387844970703124,0.6247624158859253,2.175825595855713,0.15905404090881348
1712834521079844600,24.4078447265625,0.5227479338645935,1.2998448610305786,-0.14271339774131775
1712834521099844600,24.4278447265625,0.5429064631462097,0.3389538526535034,-0.37117698788642883
1712834521119844600,24.4478447265625,0.3822489380836487,-0.6048329472541809,-0.44020476937294006
1712834521139844600,24.4678447265625,0.1837177276611328,-1.2444088459014893,-0.47685667872428894
1712834521159844600,24.4878447265625,0.06887505948543549,-1.3085497617721558,-0.5055673718452454
1712834521179844600,24.5078447265625,-0.008704829961061478,-0.9591348171234131,-0.5080108046531677
1712834521199844600,24.5278447265625,-0.08384125679731369,-0.34032830595970154,-0.4285983145236969
1712834521220470800,24.548470703125,-0.15347988903522491,0.3853796124458313,-0.3161991238594055
1712834521240470800,24.568470703125,-0.2145664244890213,0.9614255428314209,-0.21296289563179016
1712834521260470800,24.588470703125,-0.2860376536846161,1.2405909299850464,-0.14454598724842072
1712834521280470800,24.608470703125,-0.3715587854385376,1.2124911546707153,-0.12805262207984924
1712834521300470800,24.628470703125,-0.44852781295776367,0.9479864835739136,-0.1451568603515625
1712834521320470800,24.648470703125,-0.5010622143745422,0.6052911281585693,-0.14637859165668488
1712834521340471000,24.668470947265625,-0.5120577812194824,0.3334560692310333,-0.17325665056705475
1712834521360471000,24.688470947265625,-0.49617528915405273,0.14897476136684418,-0.20502164959907532
1712834521380471000,24.708470947265624,-0.4381431043148041,0.10987938940525055,-0.2007455974817276
1712834521400471000,24.728470947265624,-0.4210388660430908,0.0316886343061924,-0.2557234764099121
1712834521420471000,24.748470947265623,-0.4424191415309906,0.12026409804821014,-0.3522401750087738
1712834521440470800,24.768470703125,-0.30314189195632935,0.31268665194511414,-0.7010442018508911
1712834521460470800,24.788470703125,0.2393064647912979,0.9608146548271179,-1.1677452325820923
1712834521480471000,24.808470947265626,0.5679519772529602,2.078087091445923,-1.3607786893844604
1712834521500471000,24.828470947265625,0.7347181439399719,3.2741613388061523,-1.5061646699905396
1712834521520471000,24.848470947265625,0.8788823485374451,4.071340560913086,-1.7889952659606934
1712834521540471000,24.868470947265624,0.7903069257736206,4.174576759338379,-2.014404535293579
1712834521560471000,24.888470947265624,0.5093088746070862,3.885026693344116,-2.151238203048706
1712834521580470800,24.908470703125,0.2344195395708084,3.4116060733795166,-2.5880069732666016
1712834521600470800,24.928470703125,-0.08567385375499725,3.3132567405700684,-3.1457269191741943
1712834521620470800,24.948470703125,-0.5126686692237854,2.8306732177734375,-3.4029011726379395
1712834521640470800,24.968470703125,-0.3208569586277008,1.828243374824524,-2.044947862625122
1712834521660470800,24.988470703125,-0.7124215960502625,0.9162214994430542,-1.116432547569275
1712834521680470800,25.008470703125,-0.9799805879592896,-0.749608039855957,-1.053513526916504
