time,seconds_elapsed,z,y,x
1712834319233170200,0.098170166015625,-0.1888284683227539,-0.1887655258178711,-0.18222641944885254
1712834319253170200,0.118170166015625,-0.24737119674682617,-0.09929418563842773,-0.09452712535858154
1712834319273170200,0.138170166015625,-0.15037059783935547,-0.022742271423339844,0.0004419088363647461
1712834319293170200,0.158170166015625,-0.17005014419555664,-0.17565059661865234,-0.05603158473968506
1712834319313170200,0.178170166015625,-0.09028196334838867,0.05422401428222656,-0.11535453796386719
1712834319333170200,0.198170166015625,-0.08454418182373047,0.001434326171875,-0.17199170589447021
1712834319353170200,0.218170166015625,-0.059565067291259766,-0.0670466423034668,-0.20714521408081055
1712834319373171700,0.238171630859375,-0.014299869537353516,-0.201324462890625,-0.005552887916564941
1712834319393171700,0.258171630859375,-0.05335664749145508,-0.2493910789489746,0.2701394557952881
1712834319413171700,0.278171630859375,-0.12594223022460938,-0.1643385887145996,0.19959139823913574
1712834319433171700,0.298171630859375,-0.1998896598815918,-0.01653003692626953,-0.0410538911819458
1712834319453171700,0.318171630859375,-0.1720561981201172,0.11476612091064453,-0.25265657901763916
1712834319473171700,0.338171630859375,-0.2015976905822754,-0.0725545883178711,-0.11116552352905273
1712834319493171700,0.358171630859375,-0.34285688400268555,-0.19249391555786133,0.24953734874725342
1712834319513172500,0.37817236328125,-0.48090124130249023,-0.5643744468688965,0.5955454111099243
1712834319533172500,0.39817236328125,-0.9710664749145508,-0.10227489471435547,1.5022711753845215
1712834319553172500,0.41817236328125,-1.1895332336425781,-0.22377586364746094,1.1917898654937744
1712834319573172500,0.43817236328125,-1.8358263969421387,-0.397061824798584,1.7130390405654907
1712834319595094800,0.4600947265625,-2.2251944541931152,0.17389631271362305,2.80774188041687
1712834319615094800,0.4800947265625,-2.5936272144317627,-0.5228805541992188,2.5673835277557373
1712834319635094800,0.5000947265625,-2.678997039794922,-0.49823951721191406,2.589344024658203
1712834319655094800,0.5200947265625,-2.5652270317077637,0.06339120864868164,2.4473929405212402
1712834319675094800,0.5400947265625,-2.2889292240142822,0.26157474517822266,2.2101571559906006
1712834319695094800,0.5600947265625,-1.904130220413208,0.3907947540283203,1.945427417755127
1712834319715094800,0.5800947265625,-2.002333879470825,0.9874825477600098,1.7823337316513062
1712834319735094800,0.6000947265625,-1.976407527923584,1.3627161979675293,1.023160696029663
1712834319755094800,0.6200947265625,-1.7137656211853027,1.6658940315246582,0.5861077308654785
1712834319775094800,0.6400947265625,-1.6971440315246582,2.1812925338745117,-0.31154465675354004
1712834319795094800,0.6600947265625,-1.6530091762542725,2.217845916748047,-1.26011323928833
1712834319815094800,0.6800947265625,-1.164968490600586,1.439467430114746,-2.0869390964508057
1712834319835094800,0.7000947265625,-0.3311324119567871,1.0986900329589844,-2.0556812286376953
1712834319855094800,0.7200947265625,-0.24757122993469238,1.4637537002563477,-2.6109702587127686
1712834319875095300,0.74009521484375,-0.2698662281036377,1.8583745956420898,-3.8607664108276367
1712834319895095300,0.76009521484375,-1.1328485012054443,0.9593820571899414,-3.456835985183716
1712834319915095300,0.78009521484375,0.07795119285583496,0.3568277359008789,-4.7163591384887695
1712834319935095300,0.80009521484375,0.02521038055419922,0.1020650863647461,-4.488924026489258
1712834319955095300,0.82009521484375,0.17342019081115723,0.8457231521606445,-4.691854953765869
1712834319975094800,0.8400947265625,0.2869148254394531,0.3086862564086914,-4.780230522155762
1712834319995094800,0.8600947265625,0.8296756744384766,-0.4332761764526367,-4.93502140045166
1712834320015095300,0.88009521484375,0.3922562599182129,-0.4778327941894531,-4.406250476837158
1712834320035095300,0.90009521484375,-0.4088478088378906,-0.33934497833251953,-3.426812171936035
1712834320055095300,0.92009521484375,-0.4684176445007324,-0.3404979705810547,-3.563917636871338
1712834320075095300,0.94009521484375,-0.6309499740600586,1.137094497680664,0.6486427783966064
1712834320095095300,0.96009521484375,0.14361238479614258,1.5814571380615234,2.1200761795043945
1712834320115094800,0.9800947265625,1.1312363147735596,1.385401725769043,2.7915148735046387
1712834320135094800,1.0000947265625,0.7767493724822998,1.0412769317626953,1.9230923652648926
1712834320155094800,1.0200947265625,-0.16184067726135254,1.2531490325927734,0.03371083736419678
1712834320175094800,1.0400947265625,-0.7402052879333496,0.8010082244873047,-1.6364850997924805
1712834320195094800,1.0600947265625,-0.7798072099685669,-0.06633853912353516,-2.0305893421173096
1712834320215094800,1.0800947265625,-0.9935451745986938,-0.39272308349609375,-2.1797211170196533
1712834320235094800,1.1000947265625,-1.5229161977767944,-0.39264583587646484,-2.507899045944214
1712834320255094800,1.1200947265625,-1.7442759275436401,-0.5655269622802734,-2.626795530319214
1712834320275094800,1.1400947265625,-1.5712573528289795,-0.4560537338256836,-2.610607624053955
1712834320295094800,1.1600947265625,-1.4869400262832642,-0.3126335144042969,-2.686901569366455
1712834320315094800,1.1800947265625,-1.369642972946167,-0.28131675720214844,-2.6691739559173584
1712834320335094800,1.2000947265625,-1.3426291942596436,0.08163928985595703,-2.4663853645324707
1712834320355094800,1.2200947265625,-1.3001192808151245,0.1650705337524414,-2.07371187210083
1712834320375095300,1.24009521484375,-0.6996464729309082,0.39004039764404297,-1.6603832244873047
1712834320395095300,1.26009521484375,-0.38533449172973633,0.29335689544677734,-0.9741147756576538
1712834320415095300,1.28009521484375,0.005089998245239258,0.10413837432861328,-0.1659942865371704
1712834320435095300,1.30009521484375,-0.08494734764099121,0.027654647827148438,0.44768327474594116
1712834320455095300,1.32009521484375,-0.028643369674682617,0.3425865173339844,0.5608242154121399
1712834320475094800,1.3400947265625,0.12969136238098145,0.5764799118041992,0.3609098196029663
1712834320495094800,1.3600947265625,0.31450366973876953,1.2023038864135742,0.21441608667373657
1712834320515095300,1.38009521484375,0.36726856231689453,1.8539714813232422,0.10164134204387665
1712834320535095300,1.40009521484375,0.30489420890808105,2.5655908584594727,0.2521592378616333
1712834320555095300,1.42009521484375,0.2481389045715332,1.883443832397461,0.44303834438323975
1712834320575095300,1.44009521484375,0.6817617416381836,0.3050565719604492,0.7542372345924377
1712834320595095300,1.46009521484375,0.9483499526977539,-0.5803546905517578,0.9216787815093994
1712834320615094800,1.4800947265625,0.6930618286132812,-0.8139362335205078,0.5462199449539185
1712834320635094800,1.5000947265625,0.34461236000061035,-1.3075752258300781,0.1745908409357071
1712834320655094800,1.5200947265625,0.3750607967376709,-1.3158235549926758,0.10317892581224442
1712834320675094800,1.5400947265625,-0.2843167781829834,-1.3210554122924805,0.06700900197029114
1712834320695094800,1.5600947265625,-0.5821588039398193,-0.8052854537963867,0.3863847851753235
1712834320715094800,1.5800947265625,-0.49712181091308594,-0.17856597900390625,0.8147381544113159
1712834320735094800,1.6000947265625,-0.06225752830505371,0.06065082550048828,1.0494880676269531
1712834320755094800,1.6200947265625,0.37813711166381836,-0.08214664459228516,1.3623343706130981
1712834320775094800,1.6400947265625,0.3802957534790039,-0.34979820251464844,1.3460174798965454
1712834320795094800,1.6600947265625,0.28180623054504395,-0.1627178192138672,0.9289315938949585
1712834320815094800,1.6800947265625,0.2601296901702881,0.14615535736083984,0.39296266436576843
1712834320835094800,1.7000947265625,0.15727901458740234,0.14647197723388672,-0.06880378723144531
1712834320855094800,1.7200947265625,0.23798632621765137,-0.4139680862426758,-0.213218092918396
1712834320875095300,1.74009521484375,0.4908764362335205,-0.6845569610595703,0.07334786653518677
1712834320895095300,1.76009521484375,0.47870826721191406,-0.6805791854858398,0.06462094187736511
1712834320915095300,1.78009521484375,0.7962906360626221,-0.966557502746582,0.03944471478462219
1712834320935095300,1.80009521484375,0.5025229454040527,-0.9738655090332031,-0.036529988050460815
1712834320955095300,1.82009521484375,0.23594999313354492,-0.9133625030517578,-0.16632221639156342
1712834320975094800,1.8400947265625,0.22237682342529297,-0.79840087890625,-0.17666560411453247
1712834320995094800,1.8600947265625,0.12075281143188477,-0.6404991149902344,-0.06087648868560791
1712834321015095300,1.88009521484375,0.018372774124145508,-0.8059272766113281,-0.057609617710113525
1712834321035095300,1.90009521484375,0.3867378234863281,-0.6946229934692383,0.07327303290367126
1712834321055095300,1.92009521484375,0.708491325378418,-0.7949590682983398,0.4860501289367676
1712834321075095300,1.94009521484375,0.7408874034881592,-0.8027772903442383,0.4579135775566101
1712834321095095300,1.96009521484375,1.138293981552124,-0.4555778503417969,1.4944581985473633
1712834321115094800,1.9800947265625,0.6115086078643799,-1.020751953125,1.005600929260254
1712834321135094800,2.0000947265625,0.263411283493042,-1.1547203063964844,0.7591352462768555
1712834321155094800,2.0200947265625,0.3540687561035156,-0.6436023712158203,0.8623375296592712
1712834321175094800,2.0400947265625,0.2900421619415283,-0.5069360733032227,0.6031535267829895
1712834321195094800,2.0600947265625,-0.16982245445251465,-0.40980052947998047,0.18583554029464722
1712834321215094800,2.0800947265625,-0.12566184997558594,-0.5384283065795898,0.21851706504821777
1712834321235094800,2.1000947265625,0.4859640598297119,-0.4510364532470703,0.10274112224578857
1712834321255094800,2.1200947265625,0.23909878730773926,-0.05978870391845703,-0.5936936140060425
1712834321275094800,2.1400947265625,0.010068893432617188,1.1050329208374023,-1.4061708450317383
1712834321295094800,2.1600947265625,-0.25747013092041016,1.7250690460205078,-2.3655965328216553
1712834321315094800,2.1800947265625,-0.38110828399658203,1.6415205001831055,-2.706268072128296
1712834321335094800,2.2000947265625,-0.3128659725189209,1.6220369338989258,-2.659374475479126
1712834321355094800,2.2200947265625,0.4341292381286621,0.20109176635742188,0.04536065459251404
1712834321375095300,2.24009521484375,-0.03352999687194824,0.1389446258544922,-0.10376667231321335
1712834321395095300,2.26009521484375,-0.13169574737548828,-0.16720199584960938,-1.4120864868164062
1712834321415095300,2.28009521484375,-0.45619356632232666,-0.9096660614013672,-1.8029963970184326
1712834321435095300,2.30009521484375,-0.7872452735900879,-0.8575925827026367,-1.5368802547454834
1712834321455095300,2.32009521484375,-0.9721463918685913,-0.05879783630371094,-1.0102534294128418
1712834321475094800,2.3400947265625,-0.7427800893783569,0.5761547088623047,-0.098648302257061
1712834321495094800,2.3600947265625,-0.479303240776062,1.4167680740356445,0.6573088765144348
1712834321515095300,2.38009521484375,-0.7484305500984192,2.044881820678711,0.9583987593650818
1712834321535095300,2.40009521484375,-1.135662317276001,1.9489707946777344,1.5205426216125488
1712834321555095300,2.42009521484375,-0.7424591779708862,2.1260643005371094,2.1252658367156982
1712834321575095300,2.44009521484375,-1.2560890913009644,1.70220947265625,1.2402461767196655
1712834321595095300,2.46009521484375,-1.6482985019683838,0.9117250442504883,-0.37041622400283813
1712834321615094800,2.4800947265625,-1.242041826248169,0.21795940399169922,-0.35909897089004517
1712834321635094800,2.5000947265625,-0.9906629323959351,-0.1536703109741211,-0.015144668519496918
1712834321655094800,2.5200947265625,-1.315588116645813,-0.5678014755249023,-0.7471025586128235
1712834321675094800,2.5400947265625,-1.200278878211975,-0.9740419387817383,-0.8317948579788208
1712834321695094800,2.5600947265625,-1.4067816734313965,-0.24706745147705078,-0.4271782636642456
1712834321715094800,2.5800947265625,-1.7528917789459229,-0.21643447875976562,-0.721720278263092
1712834321735094800,2.6000947265625,-0.6445084810256958,-0.22361278533935547,0.6422322988510132
1712834321755094800,2.6200947265625,-0.022789359092712402,0.14686965942382812,0.5560121536254883
1712834321775094800,2.6400947265625,-2.03281569480896,0.7661781311035156,-0.9492363929748535
1712834321795094800,2.6600947265625,-2.5132999420166016,-0.07632732391357422,-3.037080764770508
1712834321815094800,2.6800947265625,-1.3236037492752075,-1.2421531677246094,-2.039618492126465
1712834321835094800,2.7000947265625,-1.967590093612671,-0.5264720916748047,-1.3021506071090698
1712834321855094800,2.7200947265625,-2.852846622467041,0.8557538986206055,-1.5124702453613281
1712834321875095300,2.74009521484375,-2.5116794109344482,0.3820619583129883,-0.6691305637359619
1712834321895095300,2.76009521484375,-2.2907867431640625,-0.25726318359375,0.8346157073974609
1712834321915095300,2.78009521484375,-2.038702964782715,0.10615062713623047,1.7283248901367188
1712834321935095300,2.80009521484375,-1.259889006614685,0.0717782974243164,1.2573858499526978
1712834321955095300,2.82009521484375,-0.06567859649658203,0.13576984405517578,0.23391306400299072
1712834321975094800,2.8400947265625,-0.07596158981323242,2.2134580612182617,1.2700068950653076
1712834321995094800,2.8600947265625,-1.1072546243667603,3.406949043273926,1.9425785541534424
1712834322015095300,2.88009521484375,-1.352831482887268,3.5639772415161133,0.5104586482048035
1712834322035095300,2.90009521484375,-0.39768385887145996,3.060699462890625,-0.2516977787017822
1712834322055095300,2.92009521484375,-0.4320366382598877,3.0700578689575195,-0.2567945122718811
1712834322075095300,2.94009521484375,1.1458487510681152,-1.8388557434082031,0.3472570776939392
1712834322095095300,2.96009521484375,1.0203886032104492,-2.760920524597168,0.18870502710342407
1712834322115094800,2.9800947265625,0.5138096809387207,-2.7570629119873047,-0.44020289182662964
1712834322135094800,3.0000947265625,0.12073159217834473,-2.34782075881958,-1.027623176574707
1712834322155094800,3.0200947265625,0.6014189720153809,-1.6722893714904785,-0.8816267848014832
1712834322175094800,3.0400947265625,1.3788137435913086,-0.5677280426025391,-0.44228318333625793
1712834322195094800,3.0600947265625,1.2718985080718994,0.11199378967285156,-0.25809597969055176
1712834322215094800,3.0800947265625,1.1094608306884766,0.13136768341064453,-0.6161085367202759
1712834322235094800,3.1000947265625,0.9074816703796387,0.4954557418823242,-0.8493956327438354
1712834322255094800,3.1200947265625,0.8402895927429199,0.5228729248046875,-0.8715651035308838
1712834322275094800,3.1400947265625,0.6105937957763672,0.6493253707885742,-1.403160572052002
1712834322295094800,3.1600947265625,0.568305492401123,0.6694021224975586,-1.437095046043396
1712834322315094800,3.1800947265625,0.6699965000152588,-0.45597267150878906,0.06263267993927002
1712834322335094800,3.2000947265625,0.7752625942230225,-1.127817153930664,0.07185590267181396
1712834322355094800,3.2200947265625,0.7401509284973145,-1.5389060974121094,-0.26022160053253174
1712834322375095300,3.24009521484375,0.06272172927856445,-1.450416088104248,-0.43561089038848877
1712834322395095300,3.26009521484375,-0.7703237533569336,-0.8625812530517578,-0.3590949773788452
1712834322415095300,3.28009521484375,-1.1383163928985596,-0.12131690979003906,-0.4848141670227051
1712834322435095300,3.30009521484375,-1.1957201957702637,-0.04243755340576172,-0.686479926109314
1712834322455095300,3.32009521484375,-0.9441561698913574,-0.1907663345336914,-0.7996516227722168
1712834322475094800,3.3400947265625,-0.5863149166107178,-0.21449947357177734,-0.637215256690979
1712834322495094800,3.3600947265625,-0.3869822025299072,-0.7739696502685547,-0.1844923496246338
1712834322515095300,3.38009521484375,-0.47247815132141113,-1.0524382591247559,0.46457791328430176
1712834322535095300,3.40009521484375,-0.3421194553375244,-1.089306354522705,0.1477494239807129
1712834322555095300,3.42009521484375,0.08240771293640137,-1.1574726104736328,0.033616065979003906
1712834322575095300,3.44009521484375,0.47396087646484375,-0.6659250259399414,0.7985541820526123
1712834322595095300,3.46009521484375,0.04467582702636719,0.009046554565429688,1.4117751121520996
1712834322615094800,3.4800947265625,0.05028259754180908,0.1353921890258789,1.3676130771636963
1712834322635094800,3.5000947265625,0.8604635000228882,-0.44342899322509766,1.122488260269165
1712834322655094800,3.5200947265625,1.830140471458435,-0.3258190155029297,1.2642827033996582
1712834322675094800,3.5400947265625,1.859585165977478,0.5861968994140625,1.094146966934204
1712834322695094800,3.5600947265625,1.507925271987915,0.8931856155395508,0.06470084190368652
1712834322715094800,3.5800947265625,0.9941010475158691,0.6988906860351562,-1.491898536682129
1712834322735094800,3.6000947265625,0.5106135606765747,0.7469234466552734,-2.5693697929382324
1712834322755094800,3.6200947265625,0.08829677104949951,0.7472505569458008,-2.4666388034820557
1712834322775094800,3.6400947265625,0.29532766342163086,0.2525520324707031,-1.8343092203140259
1712834322795094800,3.6600947265625,0.778878927230835,-0.4225301742553711,-1.2708712816238403
1712834322815094800,3.6800947265625,0.6882964372634888,-0.7278995513916016,-1.2439333200454712
1712834322835094800,3.7000947265625,-0.2571789026260376,-0.41229724884033203,-1.6037309169769287
1712834322855094800,3.7200947265625,-1.1315302848815918,-0.03306770324707031,-2.0244460105895996
1712834322875095300,3.74009521484375,-2.477510690689087,0.25915050506591797,-2.3557820320129395
1712834322895095300,3.76009521484375,-3.6886651515960693,0.1151285171508789,-2.0907695293426514
1712834322915095300,3.78009521484375,-4.247526168823242,0.5928068161010742,-1.5989086627960205
1712834322935095300,3.80009521484375,-4.421927452087402,1.2100868225097656,-1.3522956371307373
1712834322955095300,3.82009521484375,-4.436346054077148,1.1668081283569336,-1.1392066478729248
1712834322975094800,3.8400947265625,-3.020120620727539,1.2331418991088867,-0.9345861673355103
1712834322995094800,3.8600947265625,-2.110883951187134,0.7799472808837891,-0.46997785568237305
1712834323015095000,3.880094970703125,-1.6067835092544556,0.567011833190918,0.3755854368209839
1712834323035095000,3.900094970703125,-1.6831499338150024,1.0702247619628906,1.3268237113952637
1712834323055095000,3.920094970703125,-1.7299754619598389,2.1158409118652344,1.9043450355529785
1712834323075095000,3.940094970703125,-1.610600233078003,2.5355052947998047,2.5037431716918945
1712834323095095000,3.960094970703125,-0.12590765953063965,1.4091262817382812,3.106483221054077
1712834323115094800,3.9800947265625,0.8583545684814453,0.3898019790649414,3.2516517639160156
1712834323135094800,4.0000947265625,0.43168210983276367,0.1017770767211914,2.7350668907165527
1712834323155094800,4.0200947265625,-0.3923966884613037,-0.10094833374023438,1.3577722311019897
1712834323175094800,4.0400947265625,-1.1007908582687378,-0.0299530029296875,-0.14295649528503418
1712834323195094800,4.0600947265625,-1.6795680522918701,0.042677879333496094,-1.2262901067733765
1712834323215094800,4.0800947265625,-1.757565975189209,-0.3260021209716797,-1.922184944152832
1712834323235094800,4.1000947265625,-1.2170536518096924,-0.663447380065918,-2.0690972805023193
1712834323255094800,4.1200947265625,-0.590289831161499,-0.6012296676635742,-2.2378287315368652
1712834323275094800,4.1400947265625,-0.08215570449829102,0.15940189361572266,-2.340672016143799
1712834323295094800,4.1600947265625,-0.0942544937133789,0.7159099578857422,-3.313035488128662
1712834323315094800,4.1800947265625,-0.4193849563598633,0.5902976989746094,-4.667993545532227
1712834323335094800,4.2000947265625,-2.0505990982055664,0.48740291595458984,-4.250158786773682
1712834323355094800,4.2200947265625,-3.188620090484619,0.9690542221069336,-4.415633678436279
1712834323375095000,4.240094970703125,-3.9398398399353027,0.8497581481933594,-2.234504461288452
1712834323395095000,4.260094970703125,-3.3042588233947754,-0.063507080078125,0.21019089221954346
1712834323415095000,4.280094970703125,-2.0270063877105713,-0.29271602630615234,1.5235449075698853
1712834323435095000,4.300094970703125,-1.1300386190414429,-0.13671302795410156,1.5932154655456543
1712834323455095000,4.320094970703125,-0.9682350158691406,0.03015613555908203,1.1039584875106812
1712834323475094800,4.3400947265625,-1.0933910608291626,0.02472972869873047,0.9745657444000244
1712834323495094800,4.3600947265625,-1.2499710321426392,0.03841590881347656,0.8258312940597534
1712834323515095000,4.380094970703125,-1.5846521854400635,0.043460845947265625,0.4258692264556885
1712834323535095000,4.400094970703125,-1.835129976272583,-0.008683204650878906,0.05094611644744873
1712834323555095000,4.420094970703125,-1.9054204225540161,0.20458984375,-0.2188248634338379
1712834323575095000,4.440094970703125,-1.6576123237609863,0.14521121978759766,-0.20824933052062988
1712834323595095000,4.460094970703125,-1.172224521636963,-0.12534141540527344,-0.04084956645965576
1712834323615094800,4.4800947265625,-0.706130862236023,-0.032156944274902344,0.20820903778076172
1712834323635094800,4.5000947265625,-0.5479170083999634,0.18311500549316406,0.20206314325332642
1712834323655094800,4.5200947265625,-0.7796390056610107,0.5773229598999023,-0.08973813056945801
1712834323675094800,4.5400947265625,-1.158791184425354,0.5759773254394531,-0.571689248085022
1712834323695094800,4.5600947265625,-1.1944961547851562,0.5590581893920898,-0.8348972201347351
1712834323715094800,4.5800947265625,-0.9956095814704895,1.1910686492919922,-0.9403908252716064
1712834323735094800,4.6000947265625,-0.2886538505554199,2.2038755416870117,-0.9944888949394226
1712834323755094800,4.6200947265625,0.34186720848083496,2.546192169189453,-1.247446060180664
1712834323775094800,4.6400947265625,0.9862513542175293,1.85662841796875,-1.4350903034210205
1712834323795094800,4.6600947265625,1.1563403606414795,0.7970914840698242,-1.2819664478302002
1712834323815094800,4.6800947265625,0.8809006214141846,-0.2895927429199219,-1.1138975620269775
1712834323835094800,4.7000947265625,0.49060559272766113,-1.2069683074951172,-1.0563228130340576
1712834323855094800,4.7200947265625,0.1595984697341919,-1.7746238708496094,-1.146606683731079
1712834323875095300,4.74009521484375,0.1339184045791626,-1.9877495765686035,-1.1866183280944824
1712834323895095300,4.76009521484375,0.5245791673660278,-1.993769645690918,-0.7080658674240112
1712834323915095300,4.78009521484375,1.2344740629196167,-1.8713998794555664,-0.2906476855278015
1712834323935095300,4.80009521484375,1.2316060066223145,-1.1157045364379883,-0.05867224931716919
1712834323955095300,4.82009521484375,1.0456563234329224,0.04829216003417969,-0.466722309589386
1712834323975094800,4.8400947265625,0.08473515510559082,0.9268112182617188,-0.6369798183441162
1712834323995094800,4.8600947265625,0.33643221855163574,1.2429733276367188,-1.2635166645050049
1712834324015095300,4.88009521484375,0.20952558517456055,1.2438316345214844,-0.9632444977760315
1712834324035095300,4.90009521484375,0.3731696605682373,1.1105318069458008,-0.6324030160903931
1712834324055095300,4.92009521484375,0.34931445121765137,1.0914297103881836,-0.2540583610534668
1712834324075095300,4.94009521484375,0.1565537452697754,0.8471698760986328,-0.22161448001861572
1712834324095095300,4.96009521484375,-0.01608109474182129,0.15796661376953125,-0.23439645767211914
1712834324115094800,4.9800947265625,-0.23364615440368652,-0.7188577651977539,0.02263188362121582
1712834324135094800,5.0000947265625,-0.30004191398620605,-1.436215877532959,0.3809316158294678
1712834324155094800,5.0200947265625,-0.30518054962158203,-1.6820125579833984,0.45957911014556885
1712834324175094800,5.0400947265625,-0.2761964797973633,-1.5327296257019043,0.2051858901977539
1712834324195094800,5.0600947265625,-0.15658950805664062,-1.1788663864135742,-0.1269317865371704
1712834324215094800,5.0800947265625,-0.10891580581665039,-0.35314178466796875,-0.5562165975570679
1712834324235094800,5.1000947265625,-0.2956664562225342,0.4574251174926758,-0.9917911291122437
1712834324255094800,5.1200947265625,-0.47440576553344727,0.7419958114624023,-1.2441163063049316
1712834324275094800,5.1400947265625,-0.46479082107543945,0.3637847900390625,-1.0640603303909302
1712834324295094800,5.1600947265625,-0.40239787101745605,0.09609508514404297,-0.6890023946762085
1712834324315094800,5.1800947265625,-0.11319351196289062,-0.4088268280029297,-0.433862566947937
1712834324335094800,5.2000947265625,0.24612712860107422,-0.8916463851928711,-0.1299811601638794
1712834324355094800,5.2200947265625,0.4255952835083008,-1.3460607528686523,-0.11021173000335693
1712834324375095300,5.24009521484375,0.23023247718811035,-1.5838127136230469,-0.11132049560546875
1712834324395095300,5.26009521484375,-0.1148219108581543,-1.4550199508666992,0.021194100379943848
1712834324415095300,5.28009521484375,-0.2531038522720337,-1.3073740005493164,0.18687587976455688
1712834324435095300,5.30009521484375,-0.1316206455230713,-0.9544000625610352,0.19415205717086792
1712834324455095300,5.32009521484375,0.06592226028442383,-0.5868053436279297,0.072887122631073
1712834324475094800,5.3400947265625,0.10596561431884766,-0.3957529067993164,-0.011368155479431152
1712834324495094800,5.3600947265625,0.11858057975769043,-0.14390087127685547,-0.02441626787185669
1712834324515095300,5.38009521484375,0.2744894027709961,0.24182415008544922,0.13872158527374268
1712834324535095300,5.40009521484375,0.7081105709075928,0.8149862289428711,0.3799593448638916
1712834324555095300,5.42009521484375,0.9305052757263184,2.0878677368164062,0.3318897485733032
1712834324575095300,5.44009521484375,0.6678588390350342,2.7710208892822266,-0.061222076416015625
1712834324595095300,5.46009521484375,0.2301476001739502,2.5142221450805664,-0.13178575038909912
1712834324615094800,5.4800947265625,0.2502709627151489,2.52947998046875,-0.009061098098754883
1712834324635094800,5.5000947265625,0.015322089195251465,0.5141763687133789,1.003950834274292
1712834324655094800,5.5200947265625,0.2475731372833252,-0.15795326232910156,1.142571210861206
1712834324675094800,5.5400947265625,0.2977135181427002,-0.5449972152709961,1.0093313455581665
1712834324695094800,5.5600947265625,-0.004121184349060059,-1.0638008117675781,0.8752602338790894
1712834324715094800,5.5800947265625,-0.25336694717407227,-1.5919065475463867,0.8256375789642334
1712834324735094800,5.6000947265625,-0.4627046585083008,-1.402231216430664,0.6058026552200317
1712834324755094800,5.6200947265625,-0.6667448282241821,-0.3511343002319336,-0.04621875286102295
1712834324775094800,5.6400947265625,-1.0084128379821777,1.0396184921264648,-0.9167295694351196
1712834324795094800,5.6600947265625,-1.3710553646087646,2.128629684448242,-1.4826089143753052
1712834324815094800,5.6800947265625,-1.4279773235321045,2.4829635620117188,-1.64084792137146
1712834324835094800,5.7000947265625,-1.4225784540176392,2.1055946350097656,-1.1622459888458252
1712834324855094800,5.7200947265625,-1.2309643030166626,1.2065515518188477,-0.3031965494155884
1712834324875095300,5.74009521484375,-0.9147365093231201,0.4844703674316406,0.4108004570007324
1712834324895095300,5.76009521484375,-0.5990489721298218,-0.4629697799682617,0.8158054947853088
1712834324915095300,5.78009521484375,-0.3486264944076538,-1.1304759979248047,0.9599490761756897
1712834324935095300,5.80009521484375,-0.367684006690979,-1.1198768615722656,0.9968830943107605
1712834324955095300,5.82009521484375,-0.2251756191253662,-1.237161636352539,0.5033761262893677
1712834324975094800,5.8400947265625,-0.21607565879821777,-1.1992740631103516,0.020180225372314453
1712834324995094800,5.8600947265625,-0.1586134433746338,-0.9798717498779297,-0.5438293218612671
1712834325015095300,5.88009521484375,-0.10928034782409668,-0.6622505187988281,-1.0532681941986084
1712834325035095300,5.90009521484375,-0.0651860237121582,-0.6845560073852539,-1.132063865661621
1712834325055095300,5.92009521484375,-0.5623636245727539,0.6235198974609375,-2.155686140060425
1712834325075095300,5.94009521484375,-0.9938627481460571,1.1731071472167969,-2.691157341003418
1712834325095095300,5.96009521484375,-1.2375519275665283,1.107499122619629,-2.740190029144287
1712834325115094800,5.9800947265625,-1.3241462707519531,0.8800287246704102,-2.122124671936035
1712834325135094800,6.0000947265625,-1.2443671226501465,0.6427974700927734,-1.1024459600448608
1712834325155094800,6.0200947265625,-0.8748387098312378,0.2716217041015625,-0.11629223823547363
1712834325175094800,6.0400947265625,-0.419122576713562,-0.037344932556152344,0.43931442499160767
1712834325195094800,6.0600947265625,-0.11760354042053223,-0.15858745574951172,0.4034774899482727
1712834325215094800,6.0800947265625,0.07532739639282227,-0.26882076263427734,-0.06586563587188721
1712834325235094800,6.1000947265625,0.16117453575134277,-0.15570735931396484,-0.6548317074775696
1712834325255094800,6.1200947265625,-0.5358929634094238,-0.2468128204345703,-1.4774370193481445
1712834325275094800,6.1400947265625,-1.5430314540863037,-0.5385990142822266,-1.826280117034912
1712834325295094800,6.1600947265625,-1.6228569746017456,-0.5434017181396484,-1.2407548427581787
1712834325315094800,6.1800947265625,-1.3381291627883911,-0.041586875915527344,-0.24813246726989746
1712834325335094800,6.2000947265625,-1.2368483543395996,-0.23747825622558594,-0.19197368621826172
1712834325355094800,6.2200947265625,-1.1600909233093262,-0.2944774627685547,0.208595409989357
1712834325375095300,6.24009521484375,-1.1237232685089111,0.04483795166015625,0.5026218891143799
1712834325395095300,6.26009521484375,-1.1652936935424805,0.22898483276367188,0.4634940028190613
1712834325415095300,6.28009521484375,-1.4659662246704102,0.3305397033691406,0.31884267926216125
1712834325435095300,6.30009521484375,-1.6080657243728638,0.22774887084960938,0.26305562257766724
1712834325455095300,6.32009521484375,-1.382469892501831,0.39349365234375,0.2891717553138733
1712834325475094800,6.3400947265625,-1.094170331954956,0.6582546234130859,0.15685996413230896
1712834325495094800,6.3600947265625,-0.915337085723877,0.787022590637207,0.039392948150634766
1712834325515095300,6.38009521484375,-0.44467735290527344,0.7218427658081055,-0.12216800451278687
1712834325535095300,6.40009521484375,0.0421147346496582,1.3713665008544922,-0.47348296642303467
1712834325555095300,6.42009521484375,0.5187904834747314,1.4035959243774414,-0.28968513011932373
1712834325575095300,6.44009521484375,0.9808557033538818,0.9157171249389648,-0.48819267749786377
1712834325595095300,6.46009521484375,1.0064692497253418,0.49561595916748047,-0.6787909269332886
1712834325615094800,6.4800947265625,0.9757466316223145,-0.21288776397705078,-0.7344779968261719
1712834325635094800,6.5000947265625,0.9903807640075684,-0.9392538070678711,-0.7274599075317383
1712834325655094800,6.5200947265625,1.0047601461410522,-1.3790874481201172,-0.6190721988677979
1712834325675094800,6.5400947265625,0.8623714447021484,-1.1737089157104492,-0.06778526306152344
1712834325695094800,6.5600947265625,0.8346651792526245,-1.253458023071289,0.409008264541626
1712834325715094800,6.5800947265625,0.9154281616210938,-0.9836969375610352,0.6878862380981445
1712834325735094800,6.6000947265625,0.7404916286468506,-0.04096412658691406,0.6348692178726196
1712834325755094800,6.6200947265625,0.3892045021057129,0.49508094787597656,0.3847332000732422
1712834325775094800,6.6400947265625,0.2671959400177002,0.6178779602050781,0.3425326347351074
1712834325795094800,6.6600947265625,0.389437198638916,1.1149005889892578,0.40679216384887695
1712834325815094800,6.6800947265625,0.4667391777038574,1.3691644668579102,0.2688148021697998
1712834325835094800,6.7000947265625,0.5707097053527832,1.2073774337768555,0.29276275634765625
1712834325855094800,6.7200947265625,0.807136058807373,0.18764495849609375,0.5922633409500122
1712834325875095300,6.74009521484375,1.122999906539917,-1.0176115036010742,1.0644713640213013
1712834325895095300,6.76009521484375,1.234182596206665,-1.8081135749816895,1.1782634258270264
1712834325915095300,6.78009521484375,1.2395031452178955,-1.9752445220947266,0.8483850955963135
1712834325935095300,6.80009521484375,1.0599231719970703,-1.6816506385803223,0.3371872901916504
1712834325955095300,6.82009521484375,0.8618552684783936,-1.2808513641357422,-0.299261212348938
1712834325975094800,6.8400947265625,0.7236032485961914,-0.9541835784912109,-0.7145513296127319
1712834325995094800,6.8600947265625,0.3891565799713135,-0.4658374786376953,-0.9401500225067139
1712834326015095300,6.88009521484375,0.09305620193481445,-0.47798633575439453,-0.8101173639297485
1712834326035095300,6.90009521484375,0.28017115592956543,-0.7552089691162109,-0.21630287170410156
1712834326055095300,6.92009521484375,0.6038057804107666,-0.5493707656860352,0.2973959445953369
1712834326075095300,6.94009521484375,0.6621620655059814,-0.6475915908813477,0.3664529323577881
1712834326095095300,6.96009521484375,0.8071603775024414,-1.2217636108398438,0.42746472358703613
1712834326115094800,6.9800947265625,0.978442907333374,-1.446974754333496,0.5298680067062378
1712834326135094800,7.0000947265625,1.073899269104004,-1.233642578125,0.2968590259552002
1712834326155094800,7.0200947265625,0.9570448398590088,-0.9182510375976562,-0.17987525463104248
1712834326175094800,7.0400947265625,0.5655310153961182,-0.8070383071899414,-0.5359516143798828
1712834326195094800,7.0600947265625,0.28326869010925293,-0.6140270233154297,-0.47275054454803467
1712834326215094800,7.0800947265625,0.29172468185424805,-0.6158571243286133,-0.47194063663482666
1712834326235094800,7.1000947265625,0.5921437740325928,-0.32590770721435547,0.4123268723487854
1712834326255094800,7.1200947265625,0.92555832862854,0.17541217803955078,0.6772095561027527
1712834326275094800,7.1400947265625,0.959256649017334,0.4132976531982422,0.5985777974128723
1712834326295094800,7.1600947265625,0.7472476959228516,0.7913646697998047,0.4865117073059082
1712834326315094800,7.1800947265625,0.7567846775054932,0.8016576766967773,0.5641658306121826
1712834326335094800,7.2000947265625,-0.21576476097106934,1.2558841705322266,0.30312812328338623
1712834326355094800,7.2200947265625,-0.3130136728286743,0.6516399383544922,0.5082341432571411
1712834326375095300,7.24009521484375,-0.03509354591369629,0.5780725479125977,0.5692739486694336
1712834326395095300,7.26009521484375,0.4551246166229248,1.0151500701904297,0.21061444282531738
1712834326415095300,7.28009521484375,0.6974143981933594,1.591395378112793,-0.24651587009429932
1712834326435095300,7.30009521484375,0.684206485748291,1.5763092041015625,-0.5827038288116455
1712834326455095300,7.32009521484375,0.582188606262207,0.8446559906005859,-0.6671326160430908
1712834326475094800,7.3400947265625,0.4684467315673828,0.10738563537597656,-0.7769330739974976
1712834326495094800,7.3600947265625,0.2074826955795288,-0.33480262756347656,-0.9551814794540405
1712834326515095300,7.38009521484375,0.02624046802520752,-0.6657695770263672,-1.0440081357955933
1712834326535095300,7.40009521484375,-0.13996267318725586,-0.6258955001831055,-1.0803067684173584
1712834326555095300,7.42009521484375,-0.30133330821990967,-0.3340492248535156,-0.9700500965118408
1712834326575095300,7.44009521484375,-0.33702266216278076,0.06853485107421875,-0.7592109441757202
1712834326595095300,7.46009521484375,-0.28628504276275635,0.7311725616455078,-0.47130143642425537
1712834326615094800,7.4800947265625,-0.05642986297607422,1.061899185180664,-0.027123212814331055
1712834326635094800,7.5000947265625,0.36691153049468994,1.2213268280029297,0.36064398288726807
1712834326655094800,7.5200947265625,0.313637375831604,0.5886154174804688,0.4388936758041382
1712834326675094800,7.5400947265625,0.055258870124816895,-0.11657333374023438,0.8914126753807068
1712834326695094800,7.5600947265625,-0.20956122875213623,-0.2497234344482422,1.1041581630706787
1712834326715094800,7.5800947265625,-0.2807270288467407,-0.24906635284423828,0.7765797972679138
1712834326735094800,7.6000947265625,-0.3792436122894287,-0.20484638214111328,0.41271018981933594
1712834326755094800,7.6200947265625,-0.6637091636657715,-0.03354644775390625,-0.17313897609710693
1712834326775094800,7.6400947265625,-1.041312575340271,0.0005960464477539062,-0.37798750400543213
1712834326795094800,7.6600947265625,-1.167715311050415,-0.17066097259521484,-0.12719035148620605
1712834326815094800,7.6800947265625,-1.0957680940628052,-0.11309051513671875,0.08676159381866455
1712834326835094800,7.7000947265625,-1.0062730312347412,0.06067371368408203,0.020485639572143555
1712834326855094800,7.7200947265625,-0.8321622610092163,0.02932262420654297,-0.1808696985244751
1712834326875095300,7.74009521484375,-0.6471410989761353,-0.10192489624023438,-0.3538858890533447
1712834326895095300,7.76009521484375,-0.5432748794555664,-0.4654407501220703,-0.47076284885406494
1712834326915095300,7.78009521484375,-0.545731782913208,-0.6211395263671875,-0.6201527714729309
1712834326935095300,7.80009521484375,-0.5214767456054688,-0.6094684600830078,-0.9504382014274597
1712834326955095300,7.82009521484375,-0.6217111349105835,-0.059142112731933594,-1.4306634664535522
1712834326975094800,7.8400947265625,-0.5678470134735107,-0.32257938385009766,-1.8412365913391113
1712834326995094800,7.8600947265625,-0.4881618022918701,-0.6826820373535156,-1.7428945302963257
1712834327015095300,7.88009521484375,-0.3652886152267456,-0.7581872940063477,-1.6560169458389282
1712834327035095300,7.90009521484375,-0.45875656604766846,-0.6496505737304688,-1.7788937091827393
1712834327055095300,7.92009521484375,-0.5083884000778198,-0.468109130859375,-1.8231960535049438
1712834327075095300,7.94009521484375,-0.5268672704696655,-0.4650096893310547,-1.9320127964019775
1712834327095095300,7.96009521484375,-0.06675171852111816,0.5108022689819336,-2.376615047454834
1712834327115094800,7.9800947265625,0.323988676071167,1.2773094177246094,-2.7255566120147705
1712834327135094800,8.0000947265625,0.4384803771972656,2.272672653198242,-3.131476879119873
1712834327155094800,8.0200947265625,0.46161985397338867,2.2715749740600586,-2.992763042449951
1712834327175094800,8.0400947265625,0.3268284797668457,1.181899070739746,-2.3195180892944336
1712834327195094800,8.0600947265625,0.14838409423828125,-0.06255912780761719,-1.2910680770874023
1712834327215094800,8.0800947265625,0.17700624465942383,-1.1274452209472656,-0.5579328536987305
1712834327235094800,8.1000947265625,0.12064981460571289,-1.577746868133545,-0.29840749502182007
1712834327255094800,8.1200947265625,-0.35262298583984375,-1.4669551849365234,-0.3350120186805725
1712834327275094800,8.1400947265625,-0.855068564414978,-1.5671696662902832,-0.24360738694667816
1712834327295094800,8.1600947265625,-1.1217323541641235,-1.7424206733703613,0.012117431499063969
1712834327315094800,8.1800947265625,-1.1459141969680786,-0.9369726181030273,0.4897790849208832
1712834327335094800,8.2000947265625,-1.2878942489624023,0.2778301239013672,0.8873518705368042
1712834327355094800,8.2200947265625,-1.295839786529541,1.4983654022216797,1.0870630741119385
1712834327375095300,8.24009521484375,-1.239742636680603,3.2672510147094727,0.8810104131698608
1712834327395095300,8.26009521484375,-1.0504497289657593,3.4855289459228516,0.85338294506073
1712834327415095300,8.28009521484375,-0.5572707653045654,2.8813562393188477,1.9637974500656128
1712834327435095300,8.30009521484375,0.01973414421081543,1.9794187545776367,2.963721513748169
1712834327455095300,8.32009521484375,0.08414101600646973,0.4848184585571289,2.891465663909912
1712834327475094800,8.3400947265625,-0.17382121086120605,-0.45676136016845703,2.410303831100464
1712834327495094800,8.3600947265625,-0.46370506286621094,-1.0856657028198242,1.757336974143982
1712834327515095300,8.38009521484375,-0.7893216609954834,-1.27091646194458,1.1883792877197266
1712834327535095300,8.40009521484375,-0.8698984384536743,-1.4394121170043945,0.9523353576660156
1712834327555095300,8.42009521484375,-0.4418373107910156,-1.3929638862609863,1.0252773761749268
1712834327575095300,8.44009521484375,0.18769431114196777,-1.0992732048034668,1.166480302810669
1712834327595095300,8.46009521484375,0.5068821907043457,-0.28733158111572266,1.1535882949829102
1712834327615094800,8.4800947265625,0.3006620407104492,0.09520626068115234,0.9129675626754761
1712834327635094800,8.5000947265625,0.20931410789489746,-0.3287181854248047,0.8406703472137451
1712834327655094800,8.5200947265625,0.3524465560913086,-0.8882761001586914,1.1445997953414917
1712834327675094800,8.5400947265625,0.5715110301971436,-0.9676227569580078,0.9572373628616333
1712834327695094800,8.5600947265625,0.540076494216919,-0.9848709106445312,0.32929134368896484
1712834327715094800,8.5800947265625,0.25310420989990234,-1.3557305335998535,-0.19847393035888672
1712834327735094800,8.6000947265625,0.37940073013305664,-1.4067482948303223,-0.26520252227783203
1712834327755094800,8.6200947265625,-0.14188170433044434,-1.1765108108520508,-0.3051574230194092
1712834327775094800,8.6400947265625,-0.0754472017288208,-0.7573404312133789,-0.6916656494140625
1712834327795094800,8.6600947265625,-0.027965903282165527,-0.15565109252929688,-1.002704381942749
1712834327815094800,8.6800947265625,0.23292183876037598,0.6619367599487305,-1.1373045444488525
1712834327835094800,8.7000947265625,0.3971930742263794,2.139291763305664,-1.5479228496551514
1712834327855094800,8.7200947265625,0.08464992046356201,3.081296920776367,-2.226372241973877
1712834327875095300,8.74009521484375,-0.35125160217285156,1.7208261489868164,-2.1596298217773438
1712834327895095300,8.76009521484375,-0.506898045539856,0.4718141555786133,-0.8229231834411621
1712834327915095300,8.78009521484375,-0.40988683700561523,0.05297565460205078,0.5650484561920166
1712834327935095300,8.80009521484375,-0.4165971279144287,-0.2439250946044922,1.4675238132476807
1712834327955095300,8.82009521484375,-0.5776602029800415,-0.42531681060791016,1.9657657146453857
1712834327975094800,8.8400947265625,-0.7122282981872559,-0.48113250732421875,2.5719451904296875
1712834327995094800,8.8600947265625,-0.6967785358428955,-0.7842063903808594,3.308535575866699
1712834328015095300,8.88009521484375,-0.43670618534088135,-0.6620693206787109,3.644266128540039
1712834328035095300,8.90009521484375,-0.22848141193389893,0.0026826858520507812,3.079883337020874
1712834328055095300,8.92009521484375,-0.26989710330963135,0.9933681488037109,1.7531158924102783
1712834328075095300,8.94009521484375,-0.5137906074523926,2.275054931640625,0.5843538045883179
1712834328095095300,8.96009521484375,-0.8690155148506165,2.860630989074707,-0.2507973313331604
1712834328115094800,8.9800947265625,-0.9385329484939575,2.6110410690307617,-0.7273945808410645
1712834328135094800,9.0000947265625,-0.970102071762085,2.0425453186035156,-0.923404335975647
1712834328155094800,9.0200947265625,-0.8265239000320435,1.0839176177978516,-0.79948890209198
1712834328175094800,9.0400947265625,-0.6934487819671631,0.08226394653320312,-0.6065127849578857
1712834328195094800,9.0600947265625,-0.8703996539115906,-0.6334819793701172,-0.6263149380683899
1712834328215094800,9.0800947265625,-1.292912483215332,-1.0808868408203125,-0.9108026623725891
1712834328235094800,9.1000947265625,-1.4627269506454468,-1.2627954483032227,-1.0555378198623657
1712834328255094800,9.1200947265625,-1.336134910583496,-1.0071582794189453,-1.15536630153656
1712834328275094800,9.1400947265625,-1.4521675109863281,-0.7150936126708984,-1.4829691648483276
1712834328295094800,9.1600947265625,-1.4958686828613281,-0.2247323989868164,-1.5033824443817139
1712834328315094800,9.1800947265625,-1.1931874752044678,0.23159313201904297,-1.0641928911209106
1712834328335094800,9.2000947265625,-0.6510915756225586,0.2233877182006836,-0.6847027540206909
1712834328355094800,9.2200947265625,-0.318026065826416,0.15915298461914062,-0.7948212623596191
1712834328375095300,9.24009521484375,-0.5577421188354492,0.4012413024902344,-1.2700777053833008
1712834328395095300,9.26009521484375,-0.9088871479034424,1.0364303588867188,-1.8544132709503174
1712834328415095300,9.28009521484375,-1.1301167011260986,1.3734359741210938,-1.8909692764282227
1712834328435095300,9.30009521484375,-1.1475574970245361,1.323465347290039,-1.280754804611206
1712834328455095300,9.32009521484375,-1.159621000289917,1.3349924087524414,-1.1838469505310059
1712834328475094800,9.3400947265625,-0.7066409587860107,1.202570915222168,-0.1524801254272461
1712834328495094800,9.3600947265625,-0.728952169418335,0.6364984512329102,0.0954132080078125
1712834328515095300,9.38009521484375,-0.7789216041564941,0.6525545120239258,0.13505613803863525
1712834328535095300,9.40009521484375,-1.004443645477295,-0.3594837188720703,0.43658822774887085
1712834328555095300,9.42009521484375,-1.1301748752593994,-0.6710243225097656,0.4305238127708435
1712834328575095300,9.44009521484375,-1.3792989253997803,-0.7437047958374023,0.2005520462989807
1712834328595095300,9.46009521484375,-1.683565378189087,-0.5314216613769531,-0.20992958545684814
1712834328615094800,9.4800947265625,-1.9535129070281982,-0.2915983200073242,-0.5765923261642456
1712834328635094800,9.5000947265625,-2.0651416778564453,-0.19096088409423828,-0.7304744720458984
1712834328655094800,9.5200947265625,-2.1530776023864746,-0.04228019714355469,-0.7783935070037842
1712834328675094800,9.5400947265625,-2.256460189819336,0.09661006927490234,-0.7587883472442627
1712834328695094800,9.5600947265625,-2.256155252456665,0.16575145721435547,-0.7326669692993164
1712834328715094800,9.5800947265625,-2.3181262016296387,0.19158267974853516,-0.6760849952697754
1712834328735094800,9.6000947265625,-2.3533713817596436,0.9716825485229492,-0.7049227952957153
1712834328755094800,9.6200947265625,-2.2376108169555664,0.9616661071777344,-0.5060640573501587
1712834328775094800,9.6400947265625,-1.855275273323059,1.1206254959106445,-0.30213963985443115
1712834328795094800,9.6600947265625,-0.9404482841491699,1.735011100769043,-0.015160441398620605
1712834328815094800,9.6800947265625,0.1370537281036377,2.273411750793457,0.7907406091690063
1712834328835094800,9.7000947265625,0.9911222457885742,1.6627130508422852,1.3988912105560303
1712834328855094800,9.7200947265625,1.2509617805480957,0.2953805923461914,2.0253658294677734
1712834328875095300,9.74009521484375,0.925246000289917,-1.2024316787719727,2.5122876167297363
1712834328895095300,9.76009521484375,0.7373101711273193,-1.7693438529968262,2.374324321746826
1712834328915095300,9.78009521484375,0.567711353302002,-1.1530189514160156,1.2535386085510254
1712834328935095300,9.80009521484375,-0.3048720359802246,-0.6941061019897461,-0.6366908550262451
1712834328955095300,9.82009521484375,-0.7302162647247314,-0.6505680084228516,-1.6135772466659546
1712834328975094800,9.8400947265625,-0.750898003578186,-0.22939205169677734,-1.706183671951294
1712834328995094800,9.8600947265625,-0.328000545501709,0.34712791442871094,-0.9772332906723022
1712834329015095300,9.88009521484375,-0.35904669761657715,0.3387279510498047,-1.0685925483703613
1712834329035095300,9.90009521484375,0.7948732376098633,0.2759132385253906,0.40334582328796387
1712834329055095300,9.92009521484375,1.0418436527252197,0.7611188888549805,0.5140151977539062
1712834329075095300,9.94009521484375,1.0649762153625488,1.0619182586669922,0.2633931636810303
1712834329095095300,9.96009521484375,0.9364333152770996,0.8609352111816406,0.10524022579193115
1712834329115094800,9.9800947265625,0.6265091896057129,0.6857748031616211,0.010872125625610352
1712834329135094800,10.0000947265625,0.13379645347595215,0.2477102279663086,-0.09512686729431152
1712834329155094800,10.0200947265625,-0.1704699993133545,-0.3648386001586914,0.054209351539611816
1712834329175094800,10.0400947265625,-0.17254257202148438,-1.1222753524780273,0.386934757232666
1712834329195094800,10.0600947265625,0.0074024200439453125,-1.318345069885254,0.6472964882850647
1712834329215094800,10.0800947265625,0.05292201042175293,-1.2814302444458008,0.5020643472671509
1712834329235094800,10.1000947265625,-0.034932613372802734,-1.2218255996704102,0.2726348638534546
1712834329255094800,10.1200947265625,-0.11522436141967773,-0.7759456634521484,0.12982070446014404
1712834329275094800,10.1400947265625,-0.2109825611114502,-0.2946968078613281,-0.08202767372131348
1712834329295094800,10.1600947265625,-0.30989766120910645,-0.16241073608398438,-0.1559218168258667
1712834329315094800,10.1800947265625,-0.3217284679412842,-0.20199108123779297,0.01494288444519043
1712834329335094800,10.2000947265625,-0.2560567855834961,-0.49843597412109375,0.2908254861831665
1712834329355094800,10.2200947265625,-0.03673434257507324,-0.6484909057617188,0.5860317349433899
1712834329375095300,10.24009521484375,0.11776590347290039,-0.7937517166137695,0.6745892763137817
1712834329395095300,10.26009521484375,0.07758235931396484,-1.017059326171875,0.6432991027832031
1712834329415095300,10.28009521484375,-0.007801532745361328,-0.9759464263916016,0.6375209093093872
1712834329435095300,10.30009521484375,-0.03447413444519043,-0.4901123046875,0.5189436674118042
1712834329455095300,10.32009521484375,0.04835867881774902,0.033252716064453125,0.37991148233413696
1712834329475094800,10.3400947265625,0.07731819152832031,0.025571823120117188,0.3820499777793884
1712834329495094800,10.3600947265625,0.10437941551208496,0.6716279983520508,0.2654571533203125
1712834329515095300,10.38009521484375,0.39929986000061035,0.8214454650878906,0.38720452785491943
1712834329535095300,10.40009521484375,0.6159501075744629,1.728346824645996,0.3328476548194885
1712834329555095300,10.42009521484375,0.5397813320159912,1.5439376831054688,0.05982530117034912
1712834329575095300,10.44009521484375,0.45281529426574707,1.1031999588012695,0.14772653579711914
1712834329595095300,10.46009521484375,0.2399749755859375,0.7830934524536133,0.12908267974853516
1712834329615094800,10.4800947265625,0.11995434761047363,0.40248680114746094,0.03382694721221924
1712834329635094800,10.5000947265625,0.15263915061950684,0.3965740203857422,0.04926180839538574
1712834329655094800,10.5200947265625,-0.28591012954711914,0.2627887725830078,-0.07439613342285156
1712834329675094800,10.5400947265625,-0.4740748405456543,0.16730594635009766,-0.0013885498046875
1712834329695094800,10.5600947265625,-0.5826176404953003,-0.12876510620117188,0.20631802082061768
1712834329714924800,10.5799248046875,-0.6852483749389648,-0.604252815246582,0.470348596572876
1712834329734924800,10.5999248046875,-0.6382091045379639,-0.9893293380737305,0.6939127445220947
1712834329754924800,10.6199248046875,-0.7558056116104126,-0.7639970779418945,0.572252631187439
1712834329774924800,10.6399248046875,-0.9582436084747314,-0.4149665832519531,0.20804816484451294
1712834329794924800,10.6599248046875,-0.9559059143066406,-0.41747188568115234,0.1913478970527649
1712834329814924800,10.6799248046875,-1.2533506155014038,0.5697755813598633,-0.2761787176132202
1712834329834924800,10.6999248046875,-1.256484866142273,1.1111507415771484,-0.45109105110168457
1712834329854924800,10.7199248046875,-1.2266530990600586,1.3768072128295898,-0.4822489023208618
1712834329874925000,10.739925048828125,-1.1693155765533447,1.2632904052734375,-0.3198843002319336
1712834329894925000,10.759925048828125,-0.9332441091537476,0.7880449295043945,-0.005774855613708496
1712834329914925000,10.779925048828124,-0.7330700159072876,0.2572345733642578,0.3822323679924011
1712834329934925000,10.799925048828126,-0.5343570709228516,-0.33849525451660156,0.708116888999939
1712834329954925000,10.819925048828125,-0.5384660959243774,-0.42809295654296875,0.7327462434768677
1712834329974924800,10.8399248046875,-0.7910329103469849,-0.28232669830322266,0.3070322275161743
1712834329994924800,10.8599248046875,-1.1146903038024902,-0.08702373504638672,-0.13283538818359375
1712834330014925000,10.879925048828126,-1.3396530151367188,0.05621051788330078,-0.39796125888824463
1712834330034925000,10.899925048828125,-1.3433645963668823,0.19661617279052734,-0.45413291454315186
1712834330054925000,10.919925048828125,-1.240276575088501,0.2851409912109375,-0.4712151288986206
1712834330074925000,10.939925048828124,-1.1493196487426758,0.35025501251220703,-0.43079662322998047
1712834330094925000,10.959925048828126,-1.0892897844314575,0.4632740020751953,-0.431781530380249
1712834330114924800,10.9799248046875,-1.1255120038986206,0.5472860336303711,-0.4339946508407593
1712834330134924800,10.9999248046875,-1.1365503072738647,0.5476608276367188,-0.45435822010040283
1712834330154924800,11.0199248046875,-1.0905817747116089,0.24184703826904297,-0.270488977432251
1712834330174924800,11.0399248046875,-1.0327887535095215,0.2854280471801758,-0.20125317573547363
1712834330194924800,11.0599248046875,-1.0504670143127441,0.15380859375,-0.18869376182556152
1712834330214924800,11.0799248046875,-1.0114390850067139,0.10063934326171875,-0.04630076885223389
1712834330234924800,11.0999248046875,-1.0181677341461182,0.09917259216308594,-0.07572722434997559
1712834330254924800,11.1199248046875,-0.8091728687286377,0.09745311737060547,0.004683375358581543
1712834330274924800,11.1399248046875,-0.8015964031219482,0.11081981658935547,-0.11722427606582642
1712834330294924800,11.1599248046875,-0.9319173097610474,0.11774539947509766,-0.19361728429794312
1712834330314924800,11.1799248046875,-0.9728559255599976,0.15645217895507812,-0.17078286409378052
1712834330334924800,11.1999248046875,-0.9121615886688232,-0.2278757095336914,-0.13289368152618408
1712834330354924800,11.2199248046875,-0.5548183917999268,0.061987876892089844,-0.13252151012420654
1712834330374925000,11.239925048828125,-0.35798120498657227,0.6331939697265625,-0.18697255849838257
1712834330394925000,11.259925048828125,-0.3196415901184082,1.1679201126098633,-0.5377894639968872
1712834330414925000,11.279925048828124,-0.17334938049316406,1.8067512512207031,-0.7753877639770508
1712834330434925000,11.299925048828126,-0.16916942596435547,1.9378128051757812,-0.9353374242782593
1712834330454925000,11.319925048828125,0.2116694450378418,0.7176294326782227,-0.5748634338378906
1712834330474924800,11.3399248046875,0.20423150062561035,0.7198753356933594,-0.5736929774284363
1712834330494924800,11.3599248046875,0.5946049690246582,-1.3876533508300781,0.13874149322509766
1712834330514925000,11.379925048828126,0.42810630798339844,-1.3793582916259766,-0.18516016006469727
1712834330534925000,11.399925048828125,0.44930386543273926,-1.3897695541381836,-0.24716085195541382
1712834330554925000,11.419925048828125,-0.49552249908447266,-0.7733783721923828,-1.4407334327697754
1712834330574925000,11.439925048828124,-0.8575373888015747,-1.0004348754882812,-1.1090123653411865
1712834330594925000,11.459925048828126,-0.6494793891906738,-0.9532089233398438,-0.1843687891960144
1712834330614924800,11.4799248046875,-0.23442482948303223,-0.6184511184692383,0.7154724597930908
1712834330634924800,11.4999248046875,0.24152326583862305,-0.18262386322021484,1.186126708984375
1712834330654924800,11.5199248046875,0.2724888324737549,0.4043092727661133,1.36872398853302
1712834330674924800,11.5399248046875,0.2184276580810547,0.42926883697509766,1.558779239654541
1712834330694924800,11.5599248046875,0.36956167221069336,0.6350364685058594,1.7178564071655273
1712834330714924800,11.5799248046875,0.6443572044372559,0.827183723449707,1.4312669038772583
1712834330734924800,11.5999248046875,0.6496884822845459,0.8312797546386719,1.5057976245880127
1712834330754924800,11.6199248046875,0.5848696231842041,0.17650794982910156,0.47139260172843933
1712834330774924800,11.6399248046875,0.44086742401123047,-0.4439849853515625,0.27222001552581787
1712834330794924800,11.6599248046875,0.5308825969696045,-0.9834499359130859,0.11584508419036865
1712834330814924800,11.6799248046875,0.7288157939910889,-1.0527591705322266,-0.20568245649337769
1712834330834924800,11.6999248046875,0.7036178112030029,-0.7753753662109375,-0.7067861557006836
1712834330854924800,11.7199248046875,0.48911571502685547,-0.5163736343383789,-0.945419192314148
1712834330874925000,11.739925048828125,0.3184347152709961,-0.3634147644042969,-0.8942689895629883
1712834330894925000,11.759925048828125,0.2658383846282959,-0.3046274185180664,-0.6635349988937378
1712834330914925000,11.779925048828124,0.40898823738098145,-0.09446334838867188,-0.39325350522994995
1712834330934925000,11.799925048828126,0.49877309799194336,-0.16723155975341797,-0.30964261293411255
1712834330954925000,11.819925048828125,0.5097668170928955,-0.37682056427001953,-0.26719415187835693
1712834330974924800,11.8399248046875,0.40552186965942383,-0.6487932205200195,-0.20264983177185059
1712834330994924800,11.8599248046875,0.34287476539611816,-0.8037691116333008,-0.05839693546295166
1712834331014925000,11.879925048828126,0.3697977066040039,-0.9210205078125,-0.03871184587478638
1712834331034925000,11.899925048828125,0.38201308250427246,-0.9256677627563477,-0.058497726917266846
1712834331054925000,11.919925048828125,0.34801340103149414,-1.0138826370239258,-0.21024495363235474
1712834331074925000,11.939925048828124,0.2718050479888916,-1.0087823867797852,-0.17344248294830322
1712834331094925000,11.959925048828126,0.27409863471984863,-0.8864412307739258,-0.1378558874130249
1712834331114924800,11.9799248046875,0.32038092613220215,-0.7061424255371094,-0.16778045892715454
1712834331134924800,11.9999248046875,0.3366231918334961,-0.7095937728881836,-0.15539127588272095
1712834331154924800,12.0199248046875,0.22469377517700195,-0.2480754852294922,-0.06214970350265503
1712834331174924800,12.0399248046875,0.2009119987487793,-0.15022945404052734,0.16508179903030396
1712834331194924800,12.0599248046875,0.4328420162200928,0.39336395263671875,0.318762868642807
1712834331214924800,12.0799248046875,0.46279001235961914,1.5816841125488281,0.13794738054275513
1712834331234924800,12.0999248046875,0.4873685836791992,1.581308364868164,0.20695281028747559
1712834331254924800,12.1199248046875,-0.0949697494506836,1.7737054824829102,0.022758185863494873
1712834331274924800,12.1399248046875,-0.05614972114562988,1.377145767211914,0.24616044759750366
1712834331294924800,12.1599248046875,0.3276970386505127,0.9563999176025391,0.2649763226509094
1712834331314924800,12.1799248046875,0.601402997970581,0.5685005187988281,-0.03977537155151367
1712834331334924800,12.1999248046875,0.282153844833374,0.16693878173828125,-0.37876713275909424
1712834331354924800,12.2199248046875,-0.3199855089187622,-0.4690113067626953,-0.49116361141204834
1712834331374925000,12.239925048828125,-0.4496159553527832,-0.6763525009155273,-0.26306772232055664
1712834331394925000,12.259925048828125,-0.36421382427215576,-0.33307838439941406,-0.42890000343322754
1712834331414925000,12.279925048828124,-0.9296493530273438,0.09314346313476562,-1.065051794052124
1712834331434925000,12.299925048828126,-1.8040181398391724,0.523066520690918,-1.1744859218597412
1712834331454925000,12.319925048828125,-2.2258734703063965,1.2481708526611328,-0.5497533082962036
1712834331474924800,12.3399248046875,-2.271122455596924,1.4734125137329102,0.041539549827575684
1712834331494773000,12.35977294921875,-1.6420798301696777,1.2493000030517578,0.5330939292907715
1712834331514773200,12.379773193359375,-1.1106616258621216,1.0363454818725586,1.062506079673767
1712834331534773200,12.399773193359374,-0.584068775177002,0.42570018768310547,1.956228494644165
1712834331554773200,12.419773193359376,-0.34786295890808105,-0.3048095703125,2.5250744819641113
1712834331574773200,12.439773193359375,-0.40138721466064453,-0.5632162094116211,2.3785476684570312
1712834331594773200,12.459773193359375,-0.5709598064422607,-0.7681379318237305,1.6160566806793213
1712834331614773000,12.47977294921875,-0.7498785257339478,-0.7254066467285156,0.8046011924743652
1712834331634773000,12.49977294921875,-0.9827182292938232,-0.4973745346069336,-0.07192778587341309
1712834331654773000,12.51977294921875,-1.1571307182312012,0.01555633544921875,-1.0025575160980225
1712834331674773000,12.53977294921875,-1.2535544633865356,0.2941560745239258,-1.851161241531372
1712834331694773000,12.55977294921875,-1.2036410570144653,0.19884109497070312,-2.319094657897949
1712834331714773000,12.57977294921875,-0.9441273212432861,0.25226402282714844,-2.117271900177002
1712834331734773000,12.59977294921875,-0.49961018562316895,0.08768749237060547,-1.4593533277511597
1712834331754773000,12.61977294921875,-0.07684946060180664,-0.17519760131835938,-0.6460832357406616
1712834331774773000,12.63977294921875,0.19017887115478516,-0.37485408782958984,-0.02726447582244873
1712834331794773000,12.65977294921875,0.14042043685913086,-0.33345985412597656,0.12410509586334229
1712834331814773000,12.67977294921875,-0.22072768211364746,-0.22736167907714844,-0.05918145179748535
1712834331834773000,12.69977294921875,-0.588884711265564,-0.16022586822509766,-0.21098077297210693
1712834331854773000,12.71977294921875,-0.6611398458480835,0.009356498718261719,-0.18474483489990234
1712834331874773200,12.739773193359374,-0.8173213005065918,0.4627799987792969,-0.2986292839050293
1712834331894773200,12.759773193359376,-0.829552412033081,0.4579296112060547,-0.36440157890319824
1712834331914773200,12.779773193359375,-0.8101234436035156,0.4267139434814453,-0.4116060733795166
1712834331934773200,12.799773193359375,-0.7166646718978882,0.8301753997802734,-0.43852949142456055
1712834331954773200,12.819773193359374,-0.6773830652236938,0.9535980224609375,-0.4099591374397278
1712834331974773000,12.83977294921875,-0.38692188262939453,0.6120929718017578,-0.037235379219055176
1712834331994773000,12.85977294921875,-0.11611771583557129,0.6805210113525391,0.3094261586666107
1712834332014773200,12.879773193359375,-0.12212347984313965,0.6776838302612305,0.25464490056037903
1712834332034773200,12.899773193359374,0.2104015350341797,2.1336002349853516,0.22910848259925842
1712834332054773200,12.919773193359376,0.3362748622894287,1.3302364349365234,0.09997415542602539
1712834332074773200,12.939773193359375,0.5737030506134033,0.3864736557006836,0.5680911540985107
1712834332094773200,12.959773193359375,0.9167509078979492,-0.33747196197509766,0.6199713945388794
1712834332114773000,12.97977294921875,0.893700122833252,-0.33341217041015625,0.5941279530525208
1712834332134773000,12.99977294921875,0.03344464302062988,-1.0669326782226562,-0.2972012162208557
1712834332154773000,13.01977294921875,-0.4714047908782959,-1.4742646217346191,-0.26733386516571045
1712834332174773000,13.03977294921875,-0.47229552268981934,-1.4296073913574219,0.12631285190582275
1712834332194773000,13.05977294921875,0.03175067901611328,-1.0772371292114258,0.3704400360584259
1712834332214773000,13.07977294921875,0.16560149192810059,-0.2859783172607422,0.27329131960868835
1712834332234773000,13.09977294921875,0.08884263038635254,0.060863494873046875,0.24629677832126617
1712834332254773000,13.11977294921875,0.16563653945922852,0.13694000244140625,0.5270708203315735
1712834332274773000,13.13977294921875,0.4912450313568115,0.34613895416259766,0.578252911567688
1712834332294773000,13.15977294921875,0.5938935279846191,0.6662311553955078,0.04930382966995239
1712834332314773000,13.17977294921875,0.297222375869751,0.2156229019165039,-0.37397241592407227
1712834332334773000,13.19977294921875,0.12819218635559082,-0.48609447479248047,-0.3365785479545593
1712834332354773000,13.21977294921875,0.25719785690307617,-1.05206298828125,-0.33232712745666504
1712834332374773200,13.239773193359374,0.5111567974090576,-1.391676425933838,-0.5350106358528137
1712834332394773200,13.259773193359376,0.5229859352111816,-1.395362377166748,-0.5369718670845032
1712834332414773200,13.279773193359375,0.5186941623687744,-1.1724090576171875,-0.7827242016792297
1712834332434773200,13.299773193359375,0.5407528877258301,-1.1804876327514648,-0.8075863718986511
1712834332454773200,13.319773193359374,0.35233068466186523,-0.8882675170898438,-0.7562279105186462
1712834332474773000,13.33977294921875,0.38632822036743164,-0.7849607467651367,-0.5038201212882996
1712834332494773000,13.35977294921875,0.4022989273071289,-0.5065097808837891,-0.27322304248809814
1712834332514773200,13.379773193359375,0.415233850479126,-0.6669511795043945,-0.3147205114364624
1712834332534773200,13.399773193359374,0.5823054313659668,-1.0828218460083008,-0.28302404284477234
1712834332554773200,13.419773193359376,0.6404068470001221,-1.3654212951660156,-0.24325698614120483
1712834332574773200,13.439773193359375,0.6075432300567627,-1.328904151916504,-0.31805649399757385
1712834332594773200,13.459773193359375,0.39003753662109375,-1.2739133834838867,-0.43753087520599365
1712834332614773000,13.47977294921875,0.13123512268066406,-1.157872200012207,-0.46840426325798035
1712834332634773000,13.49977294921875,-0.0485987663269043,-0.8357381820678711,-0.38589993119239807
1712834332654773000,13.51977294921875,-0.02132391929626465,-0.4003334045410156,-0.1827508807182312
1712834332674773000,13.53977294921875,0.18472957611083984,-0.25666236877441406,0.10082739591598511
1712834332694773000,13.55977294921875,0.6242845058441162,0.22874164581298828,0.38259953260421753
1712834332714773000,13.57977294921875,0.8242542743682861,1.277766227722168,0.2848982810974121
1712834332734773000,13.59977294921875,0.6066648960113525,2.68703556060791,-0.0979757308959961
1712834332754773000,13.61977294921875,0.6540310382843018,2.6889572143554688,0.027959585189819336
1712834332774773000,13.63977294921875,-0.024779081344604492,2.2374258041381836,0.30829918384552
1712834332794773000,13.65977294921875,0.10544824600219727,1.5009632110595703,0.9080934524536133
1712834332814773000,13.67977294921875,0.2032480239868164,0.7929286956787109,1.068623661994934
1712834332834773000,13.69977294921875,0.12263274192810059,0.0007944107055664062,1.2009234428405762
1712834332854773000,13.71977294921875,-0.11406314373016357,-0.6019783020019531,1.3928816318511963
1712834332874773200,13.739773193359374,-0.3176438808441162,-1.174565315246582,1.5078970193862915
1712834332894773200,13.759773193359376,-0.5012192726135254,-1.2613210678100586,1.403460144996643
1712834332914773200,13.779773193359375,-0.7528420686721802,-0.770777702331543,1.0218158960342407
1712834332934773200,13.799773193359375,-1.1767747402191162,-0.015089035034179688,0.5183861255645752
1712834332954773200,13.819773193359374,-1.5063152313232422,0.48621368408203125,0.11641824245452881
1712834332974773000,13.83977294921875,-1.6723756790161133,0.9668378829956055,0.08465957641601562
1712834332994773000,13.85977294921875,-1.6780173778533936,1.2423124313354492,0.2623140811920166
1712834333014773200,13.879773193359375,-1.453662633895874,1.300114631652832,0.5105953216552734
1712834333034773200,13.899773193359374,-1.266216516494751,1.4412240982055664,0.6409953236579895
1712834333054773200,13.919773193359376,-1.261826753616333,1.42327880859375,0.7228603363037109
1712834333074773200,13.939773193359375,-0.9559873342514038,0.6702871322631836,1.1960943937301636
1712834333094773200,13.959773193359375,-0.5453677177429199,0.12422466278076172,1.670012354850769
1712834333114773000,13.97977294921875,-0.5362473726272583,0.1417980194091797,1.769023060798645
1712834333134773000,13.99977294921875,-0.1549685001373291,-0.6256589889526367,1.4738101959228516
1712834333154773000,14.01977294921875,-0.4681903123855591,-0.6433238983154297,1.169883131980896
1712834333174773000,14.03977294921875,-0.7509610652923584,-0.41910552978515625,0.9116462469100952
1712834333194773000,14.05977294921875,-0.9306418895721436,0.20048999786376953,0.6798149347305298
1712834333214773000,14.07977294921875,-0.972166895866394,0.43415164947509766,0.4042172431945801
1712834333234773000,14.09977294921875,-0.7875169515609741,-0.0056896209716796875,0.4389446973800659
1712834333254773000,14.11977294921875,-0.43618786334991455,-0.27172088623046875,0.6137173175811768
1712834333274773000,14.13977294921875,-0.09987187385559082,-0.23275470733642578,0.6449406147003174
1712834333294773000,14.15977294921875,0.07348084449768066,-0.11088180541992188,0.4056429862976074
1712834333314773000,14.17977294921875,0.08689451217651367,-0.14159393310546875,0.048233985900878906
1712834333334773000,14.19977294921875,0.13433194160461426,-0.1258554458618164,-0.3129754066467285
1712834333354773000,14.21977294921875,0.08043599128723145,0.1651439666748047,-0.6895961761474609
1712834333374773200,14.239773193359374,-0.05195581912994385,0.18561172485351562,-0.9707717895507812
1712834333394773200,14.259773193359376,-0.23583829402923584,0.2155933380126953,-1.110650897026062
1712834333414773200,14.279773193359375,-0.36645960807800293,0.2404623031616211,-1.0490589141845703
1712834333434773200,14.299773193359375,-0.5261539220809937,-0.01719188690185547,-0.7844829559326172
1712834333454773200,14.319773193359374,-0.40444648265838623,-0.1876201629638672,-0.401589035987854
1712834333474773000,14.33977294921875,-0.2209843397140503,-0.1695232391357422,-0.10992896556854248
1712834333494773000,14.35977294921875,-0.15539050102233887,-0.08908557891845703,-0.008239507675170898
1712834333514773200,14.379773193359375,-0.2281564474105835,0.049808502197265625,0.048842430114746094
1712834333534773200,14.399773193359374,-0.42593419551849365,0.3315572738647461,-0.02021157741546631
1712834333554773200,14.419773193359376,-0.6973485946655273,0.5245800018310547,-0.03453439474105835
1712834333574773200,14.439773193359375,-0.863935112953186,0.5961894989013672,0.11932522058486938
1712834333594773200,14.459773193359375,-0.9363380074501038,0.7959890365600586,0.3114747405052185
1712834333614773000,14.47977294921875,-1.0051485300064087,0.5684719085693359,0.5361438989639282
1712834333634773000,14.49977294921875,-0.9609400033950806,0.4855356216430664,0.8717132806777954
1712834333654773000,14.51977294921875,-1.0301384925842285,0.5758514404296875,1.0687956809997559
1712834333674773000,14.53977294921875,-1.092843770980835,0.4950675964355469,1.1940616369247437
1712834333694773000,14.55977294921875,-1.083693027496338,0.5425872802734375,1.2515475749969482
1712834333714773000,14.57977294921875,-1.1294481754302979,0.7039794921875,1.0744719505310059
1712834333734773000,14.59977294921875,-1.1687737703323364,0.6298666000366211,0.9215399622917175
1712834333754773000,14.61977294921875,-1.0800626277923584,0.5383186340332031,0.9489388465881348
1712834333774773000,14.63977294921875,-1.085336685180664,0.48955249786376953,0.9186150431632996
1712834333794773000,14.65977294921875,-1.1440852880477905,0.26845645904541016,0.802753746509552
1712834333814773000,14.67977294921875,-1.1453776359558105,-0.10389137268066406,0.7776482105255127
1712834333834773000,14.69977294921875,-0.9799631834030151,-0.36940479278564453,0.6620473265647888
1712834333854773000,14.71977294921875,-0.837546706199646,-0.23948097229003906,0.3848980665206909
1712834333874773200,14.739773193359374,-0.7963852882385254,-0.0963602066040039,-0.0012456178665161133
1712834333894773200,14.759773193359376,-0.7424579858779907,-0.21989727020263672,-0.3158297538757324
1712834333914773200,14.779773193359375,-0.5806540250778198,-0.45214271545410156,-0.5050821304321289
1712834333934773200,14.799773193359375,-0.40833544731140137,-0.56341552734375,-0.650698184967041
1712834333954773200,14.819773193359374,-0.2332155704498291,-0.6440849304199219,-0.8818544149398804
1712834333974773000,14.83977294921875,-0.09833288192749023,-0.7929782867431641,-1.1576497554779053
1712834333994773000,14.85977294921875,0.018856048583984375,-0.8784818649291992,-1.4230937957763672
1712834334014773200,14.879773193359375,0.08713459968566895,-0.6935653686523438,-1.7589609622955322
1712834334034773200,14.899773193359374,-0.0018966197967529297,-0.4109983444213867,-2.1261980533599854
1712834334054773200,14.919773193359376,-0.08466982841491699,-0.5329837799072266,-2.2488744258880615
1712834334074773200,14.939773193359375,-0.14512085914611816,-0.7919549942016602,-2.034613847732544
1712834334094773200,14.959773193359375,-0.22850370407104492,-0.9189910888671875,-1.6786413192749023
1712834334114773000,14.97977294921875,-0.2882838249206543,-0.8380060195922852,-1.4211983680725098
1712834334134773000,14.99977294921875,-0.36770522594451904,-0.4283933639526367,-1.2115271091461182
1712834334154773000,15.01977294921875,-0.4851865768432617,0.25550270080566406,-1.1822574138641357
1712834334174773000,15.03977294921875,-0.8561716079711914,1.047989845275879,-1.1594939231872559
1712834334194773000,15.05977294921875,-1.2034826278686523,1.2347564697265625,-0.7387310266494751
1712834334214773000,15.07977294921875,-0.8000134229660034,0.7655239105224609,0.1229780912399292
1712834334234773000,15.09977294921875,-0.15647363662719727,0.5508584976196289,0.9672548770904541
1712834334254773000,15.11977294921875,0.23270106315612793,0.5743293762207031,1.2373994588851929
1712834334274773000,15.13977294921875,0.13853001594543457,0.6529569625854492,1.0225560665130615
1712834334294773000,15.15977294921875,-0.12960660457611084,0.7095098495483398,0.6260831356048584
1712834334314773000,15.17977294921875,-0.5054559707641602,0.773289680480957,0.5039926767349243
1712834334334773000,15.19977294921875,-0.5482785701751709,0.5094833374023438,0.7079852819442749
1712834334354773000,15.21977294921875,-0.24074649810791016,0.4947175979614258,1.0290195941925049
1712834334374773200,15.239773193359374,0.40057694911956787,0.33666324615478516,1.2188336849212646
1712834334394773200,15.259773193359376,0.3859182596206665,0.33681678771972656,1.2048673629760742
1712834334414773200,15.279773193359375,0.8997918367385864,0.016290664672851562,1.5794445276260376
1712834334434773200,15.299773193359375,0.34140801429748535,-0.36327648162841797,1.3254179954528809
1712834334454773200,15.319773193359374,-0.36460137367248535,-0.44641876220703125,0.8719891905784607
1712834334474773000,15.33977294921875,-0.819500207901001,-0.4533205032348633,0.23286914825439453
1712834334494773000,15.35977294921875,-0.9011814594268799,-0.4030427932739258,-0.37471890449523926
1712834334514773200,15.379773193359375,-0.9714221954345703,-0.38850975036621094,-0.3827025890350342
1712834334534773200,15.399773193359374,-0.8696871995925903,-0.22869586944580078,-0.8540233373641968
1712834334554773200,15.419773193359376,-0.7620111703872681,-0.30803394317626953,-0.6419413089752197
1712834334574773200,15.439773193359375,-0.514856219291687,-0.4938993453979492,-0.24832558631896973
1712834334594773200,15.459773193359375,-0.13552355766296387,-0.4309682846069336,0.07061409950256348
1712834334614773000,15.47977294921875,0.1875145435333252,0.21325016021728516,0.00842583179473877
1712834334634773000,15.49977294921875,0.18263030052185059,1.4596529006958008,-0.3353252410888672
1712834334654773000,15.51977294921875,-0.21249985694885254,1.5665769577026367,-0.662822961807251
1712834334674773000,15.53977294921875,-0.16244840621948242,0.6900854110717773,-0.20879852771759033
1712834334694773000,15.55977294921875,-0.017018795013427734,0.5039215087890625,0.7544149160385132
1712834334714773000,15.57977294921875,0.32679295539855957,0.044320106506347656,1.5521190166473389
1712834334734773000,15.59977294921875,0.803107738494873,-0.6040763854980469,2.191788673400879
1712834334754773000,15.61977294921875,1.0659770965576172,-0.8404006958007812,2.428741931915283
1712834334774773000,15.63977294921875,1.3788814544677734,-0.5583963394165039,2.0682246685028076
1712834334794773000,15.65977294921875,1.715500831604004,-0.09310436248779297,1.2121888399124146
1712834334814773000,15.67977294921875,1.758875846862793,-0.10436534881591797,1.204311490058899
1712834334834773000,15.69977294921875,2.1019084453582764,0.3904581069946289,0.31658709049224854
1712834334854773000,15.71977294921875,2.1275219917297363,0.7877187728881836,-0.4379352331161499
1712834334874773200,15.739773193359374,0.9834980964660645,0.42757701873779297,-0.7505781650543213
1712834334894773200,15.759773193359376,0.11520218849182129,0.0031251907348632812,-0.8528287410736084
1712834334914773200,15.779773193359375,-0.6311136484146118,-0.5321779251098633,-0.8784523010253906
1712834334934773200,15.799773193359375,-0.6615461111068726,-0.5308570861816406,-0.9115868806838989
1712834334954773200,15.819773193359374,-0.8707888126373291,-1.255472183227539,-0.3415045738220215
1712834334974773000,15.83977294921875,-0.5516455173492432,-1.1912765502929688,-0.08530890941619873
1712834334994773000,15.85977294921875,-0.32065820693969727,-0.8576536178588867,-0.05053746700286865
1712834335014773200,15.879773193359375,-0.39993858337402344,-0.6579046249389648,-0.026259660720825195
1712834335034773200,15.899773193359374,-0.5701085329055786,-0.20005512237548828,0.0037491321563720703
1712834335054773200,15.919773193359376,-0.5901540517807007,-0.19652938842773438,-0.006631970405578613
1712834335074773200,15.939773193359375,-0.6131526231765747,0.6344356536865234,-0.06234943866729736
1712834335094773200,15.959773193359375,-0.5346286296844482,0.659510612487793,-0.1662958860397339
1712834335114773000,15.97977294921875,-0.4631037712097168,0.7941770553588867,-0.07811033725738525
1712834335134773000,15.99977294921875,-0.31328868865966797,0.5945949554443359,0.3218410015106201
1712834335154773000,16.01977294921875,0.06662869453430176,0.39104366302490234,0.9084028601646423
1712834335174773000,16.03977294921875,0.5557858943939209,0.1619586944580078,1.4473110437393188
1712834335194773000,16.05977294921875,1.079667329788208,-0.0019998550415039062,1.4890048503875732
1712834335214773000,16.07977294921875,1.304924488067627,0.16371536254882812,0.9703595638275146
1712834335234773000,16.09977294921875,1.2577118873596191,0.36699676513671875,0.11107230186462402
1712834335254773000,16.11977294921875,1.165855884552002,0.19521713256835938,-0.5357744693756104
1712834335274773000,16.13977294921875,1.0250136852264404,0.005272865295410156,-1.0775636434555054
1712834335294773000,16.15977294921875,0.6497898101806641,-0.44168663024902344,-1.509139895439148
1712834335314773000,16.17977294921875,0.38399815559387207,-0.8816041946411133,-1.6464217901229858
1712834335334773000,16.19977294921875,0.2660248279571533,-0.9767971038818359,-1.635380506515503
1712834335354773000,16.21977294921875,0.25872278213500977,-1.0555849075317383,-1.6275964975357056
1712834335374773200,16.239773193359376,0.32093071937561035,-1.1067066192626953,-1.4091359376907349
1712834335394773200,16.259773193359376,0.43608665466308594,-1.158233642578125,-1.0424035787582397
1712834335414773200,16.279773193359375,0.5186939239501953,-1.1519784927368164,-0.794761061668396
1712834335434773200,16.299773193359375,0.49178099632263184,-1.2385835647583008,-0.6975163221359253
1712834335454773200,16.319773193359374,0.3880636692047119,-1.242781639099121,-0.6705024242401123
1712834335474773000,16.33977294921875,0.2313251495361328,-1.2220172882080078,-0.6625027060508728
1712834335494773000,16.35977294921875,0.1391432285308838,-1.1669034957885742,-0.6162912249565125
1712834335514773200,16.379773193359377,0.16677474975585938,-0.9432363510131836,-0.544958770275116
1712834335534773200,16.399773193359376,0.30817365646362305,-0.7680902481079102,-0.39662325382232666
1712834335554773200,16.419773193359376,0.6400983333587646,-0.35337066650390625,-0.2691959738731384
1712834335574773200,16.439773193359375,0.6533613204956055,-0.35460948944091797,-0.24997484683990479
1712834335594773200,16.459773193359375,0.6020731925964355,0.6459741592407227,-0.6774178743362427
1712834335614773000,16.47977294921875,0.4108455181121826,0.4689216613769531,-0.809232234954834
1712834335634773000,16.49977294921875,0.25940871238708496,0.36502647399902344,-0.7593342065811157
1712834335654773000,16.51977294921875,0.20304632186889648,0.31757164001464844,-0.6570812463760376
1712834335674773000,16.53977294921875,0.17291522026062012,0.21915149688720703,-0.5457984209060669
1712834335694773000,16.55977294921875,0.2061290740966797,0.083251953125,-0.37376201152801514
1712834335714773000,16.57977294921875,0.24632811546325684,0.050060272216796875,-0.15999114513397217
1712834335734773000,16.59977294921875,0.14757347106933594,0.15439128875732422,-0.02877330780029297
1712834335754773000,16.61977294921875,-0.013759851455688477,0.292572021484375,0.001063227653503418
1712834335774773000,16.63977294921875,-0.056086063385009766,0.29329967498779297,-0.015046477317810059
1712834335794773000,16.65977294921875,0.047086238861083984,0.15453243255615234,-0.0653907060623169
1712834335814773000,16.67977294921875,0.07823705673217773,-0.08031940460205078,-0.10805988311767578
1712834335834773000,16.69977294921875,0.05106914043426514,-0.3938713073730469,-0.10537576675415039
1712834335854773000,16.71977294921875,-0.12704813480377197,-0.20136356353759766,-0.22408521175384521
1712834335874773200,16.739773193359376,-0.0814276933670044,-0.21279525756835938,-0.24721884727478027
1712834335894773200,16.759773193359376,-0.7207040786743164,0.25772762298583984,-0.5451455116271973
1712834335914773200,16.779773193359375,-0.7889999151229858,0.43300819396972656,-0.32152581214904785
1712834335934773200,16.799773193359375,-0.7802250385284424,0.9071111679077148,-0.12703382968902588
1712834335954773200,16.819773193359374,-0.7903618812561035,1.215134620666504,-0.009581208229064941
1712834335974773000,16.83977294921875,-0.7031619548797607,1.1265630722045898,0.18085962533950806
1712834335994773000,16.85977294921875,-0.5273412466049194,0.9659585952758789,0.34366708993911743
1712834336014773200,16.879773193359377,-0.3640744686126709,0.5831594467163086,0.41426414251327515
1712834336034773200,16.899773193359376,-0.31815850734710693,0.31656455993652344,0.2831105589866638
1712834336054773200,16.919773193359376,-0.3213481903076172,-0.07423973083496094,0.018972396850585938
1712834336074773200,16.939773193359375,-0.31595683097839355,-0.44878673553466797,-0.22476530075073242
1712834336094773200,16.959773193359375,-0.40737998485565186,-0.7404098510742188,-0.5537713766098022
1712834336114773000,16.97977294921875,-0.4779742956161499,-1.0179462432861328,-0.8661047220230103
1712834336134773000,16.99977294921875,-0.5530240535736084,-0.8690376281738281,-1.1652023792266846
1712834336154773000,17.01977294921875,-0.5601528882980347,-0.5269842147827148,-1.573427677154541
1712834336174773000,17.03977294921875,-0.5635378360748291,-0.11513519287109375,-1.9030238389968872
1712834336194773000,17.05977294921875,-0.6167135238647461,0.10087776184082031,-2.058866500854492
1712834336214773000,17.07977294921875,-0.5187959671020508,0.2330799102783203,-1.9408330917358398
1712834336234773000,17.09977294921875,-0.5117504596710205,0.3547382354736328,-1.6755053997039795
1712834336254773000,17.11977294921875,-0.5090482234954834,0.37232494354248047,-1.3551130294799805
1712834336274773000,17.13977294921875,-0.5870218276977539,0.4585552215576172,-1.0454351902008057
1712834336294773000,17.15977294921875,-0.7041033506393433,0.38158512115478516,-0.6672404408454895
1712834336314773000,17.17977294921875,-0.8094409704208374,0.38552093505859375,-0.2021925449371338
1712834336334773000,17.19977294921875,-0.9470235109329224,0.44672203063964844,-0.01318126916885376
1712834336354773000,17.21977294921875,-1.0291023254394531,0.5396757125854492,-0.00002276897430419922
1712834336374773200,17.239773193359376,-1.1113169193267822,0.5403985977172852,-0.15378302335739136
1712834336394773200,17.259773193359376,-1.1036531925201416,0.5353631973266602,-0.20970982313156128
1712834336414773200,17.279773193359375,-1.236316204071045,0.34280967712402344,-0.3303712010383606
1712834336434773200,17.299773193359375,-1.3443034887313843,0.17365074157714844,-0.4370683431625366
1712834336454773200,17.319773193359374,-1.4402045011520386,0.03507423400878906,-0.5492506623268127
1712834336474773000,17.33977294921875,-1.5121450424194336,-0.01991558074951172,-0.7096116542816162
1712834336494773000,17.35977294921875,-1.5633153915405273,-0.12756633758544922,-0.7828601598739624
1712834336514773200,17.379773193359377,-1.516442894935608,-0.22562122344970703,-0.7211618423461914
1712834336534773200,17.399773193359376,-1.478063941001892,-0.21368026733398438,-0.7833408713340759
1712834336554773200,17.419773193359376,-1.5100412368774414,-0.15169906616210938,-0.9053367376327515
1712834336574773200,17.439773193359375,-1.5692596435546875,-0.05871009826660156,-0.9245823621749878
1712834336594773200,17.459773193359375,-1.6075727939605713,0.11055755615234375,-0.8427967429161072
1712834336614773000,17.47977294921875,-1.6246110200881958,0.10181999206542969,-0.7128779888153076
1712834336634773000,17.49977294921875,-1.4506481885910034,0.3149547576904297,-0.47082510590553284
1712834336654773000,17.51977294921875,-1.2089340686798096,0.6606197357177734,-0.4105669856071472
1712834336674773000,17.53977294921875,-0.9770221710205078,0.7566995620727539,-0.4073962867259979
1712834336694773000,17.55977294921875,-0.6445778608322144,0.8656139373779297,-0.29344579577445984
1712834336714773000,17.57977294921875,-0.4220857620239258,1.0441951751708984,-0.3255149722099304
1712834336734773000,17.59977294921875,-0.20828557014465332,1.0460071563720703,-0.617901623249054
1712834336754773000,17.61977294921875,-0.128190279006958,0.9294414520263672,-0.6719081401824951
1712834336774773000,17.63977294921875,-0.07666969299316406,0.3585376739501953,-0.6044561266899109
1712834336794773000,17.65977294921875,-0.0699613094329834,-0.30774879455566406,-0.34215396642684937
1712834336814773000,17.67977294921875,-0.04431796073913574,-0.8561182022094727,0.004600465297698975
1712834336834773000,17.69977294921875,-0.10901117324829102,-0.7990703582763672,0.16292554140090942
1712834336854773000,17.71977294921875,-0.322462797164917,-0.4268312454223633,0.26709550619125366
1712834336874773200,17.739773193359376,-0.5535991191864014,-0.15433788299560547,0.2684960663318634
1712834336894773200,17.759773193359376,-0.5616381168365479,0.09933090209960938,0.587649405002594
1712834336914773200,17.779773193359375,-0.2807626724243164,-0.30242061614990234,1.009360432624817
1712834336934773200,17.799773193359375,0.22509360313415527,-0.5778684616088867,1.4059849977493286
1712834336954773200,17.819773193359374,0.5791528224945068,-0.7132463455200195,1.4669818878173828
1712834336974773000,17.83977294921875,0.6594197750091553,-0.6694869995117188,1.1988534927368164
1712834336994773000,17.85977294921875,0.5416367053985596,-0.46916961669921875,0.9417450428009033
1712834337014773200,17.879773193359377,0.44127726554870605,-0.00589752197265625,0.6971633434295654
1712834337034773200,17.899773193359376,0.48705148696899414,0.42864322662353516,0.4918137788772583
1712834337054773200,17.919773193359376,0.6827616691589355,0.4923057556152344,0.3407505750656128
1712834337074773200,17.939773193359375,0.843472957611084,0.4921712875366211,0.43437302112579346
1712834337094773200,17.959773193359375,0.9491655826568604,0.25263404846191406,0.5914138555526733
1712834337114773000,17.97977294921875,0.9882633686065674,-0.25261974334716797,0.7296062707901001
1712834337134773000,17.99977294921875,1.0147125720977783,-0.6136350631713867,0.7444326281547546
1712834337154773000,18.01977294921875,0.9364526271820068,-0.7791147232055664,0.6101571321487427
1712834337174773000,18.03977294921875,0.8392162322998047,-0.7477293014526367,0.3880835175514221
1712834337194773000,18.05977294921875,0.6986267566680908,-0.4900627136230469,0.15873032808303833
1712834337214773000,18.07977294921875,0.6206154823303223,-0.22849273681640625,-0.017928779125213623
1712834337234773000,18.09977294921875,0.6220085620880127,-0.06996631622314453,-0.06821268796920776
1712834337254773000,18.11977294921875,0.5539169311523438,-0.13719940185546875,0.009431838989257812
1712834337274773000,18.13977294921875,0.5696353912353516,-0.36010265350341797,0.2129535675048828
1712834337294773000,18.15977294921875,0.6407074928283691,-0.4453315734863281,0.355856329202652
1712834337314773000,18.17977294921875,0.5354428291320801,-0.5397272109985352,0.2637617290019989
1712834337334773000,18.19977294921875,0.5237393379211426,-0.6694774627685547,0.11566019058227539
1712834337354773000,18.21977294921875,0.5067312717437744,-0.8391265869140625,0.01956099271774292
1712834337374773200,18.239773193359376,0.41592860221862793,-0.9601030349731445,-0.00726473331451416
1712834337394773200,18.259773193359376,0.30191779136657715,-1.118600845336914,-0.07436197996139526
1712834337414773200,18.279773193359375,0.2381596565246582,-0.981745719909668,-0.07917982339859009
1712834337434773200,18.299773193359375,0.20408153533935547,-0.6622114181518555,-0.16921252012252808
1712834337454773200,18.319773193359374,0.10562419891357422,-0.5663356781005859,-0.2843243479728699
1712834337474773000,18.33977294921875,0.03473329544067383,-0.6001777648925781,-0.06661286950111389
1712834337494773000,18.35977294921875,-0.030841350555419922,-0.7227792739868164,0.351713091135025
1712834337514773200,18.379773193359377,-0.011774778366088867,-0.8209304809570312,0.7209590673446655
1712834337534773200,18.399773193359376,0.008177995681762695,-0.6717643737792969,0.912032961845398
1712834337554773200,18.419773193359376,0.1061398983001709,-0.5051116943359375,0.8640539646148682
1712834337574773200,18.439773193359375,0.14586400985717773,-0.51300048828125,0.9130058288574219
1712834337594773200,18.459773193359375,0.4410247802734375,-0.5498523712158203,0.872828483581543
1712834337614773000,18.47977294921875,0.5877363681793213,-0.34076976776123047,0.7792425155639648
1712834337634773000,18.49977294921875,0.6013467311859131,0.4977846145629883,0.4986618757247925
1712834337654773000,18.51977294921875,0.41756439208984375,1.395294189453125,0.09383189678192139
1712834337674773000,18.53977294921875,0.1900346279144287,1.9398746490478516,-0.19094765186309814
1712834337694773000,18.55977294921875,0.029483795166015625,2.043259620666504,-0.2424682378768921
1712834337714773000,18.57977294921875,0.10668516159057617,1.6210803985595703,-0.015299797058105469
1712834337734773000,18.59977294921875,0.31461596488952637,1.0614261627197266,0.19344401359558105
1712834337754773000,18.61977294921875,0.4597499370574951,0.49913787841796875,0.2440565824508667
1712834337774773000,18.63977294921875,0.5003986358642578,0.502812385559082,0.3262714147567749
1712834337794773000,18.65977294921875,0.2512615919113159,-0.8653068542480469,0.21195507049560547
1712834337814773000,18.67977294921875,0.1373811960220337,-1.127192497253418,0.05451834201812744
1712834337834773000,18.69977294921875,0.011751890182495117,-0.8661317825317383,-0.23658764362335205
1712834337854773000,18.71977294921875,-0.1977839469909668,0.03216361999511719,-0.5359147787094116
1712834337874773200,18.739773193359376,-0.4667484760284424,0.8234996795654297,-0.7521193027496338
1712834337894773200,18.759773193359376,-0.6972402334213257,1.3589935302734375,-0.5889949798583984
1712834337914773200,18.779773193359375,-0.9671000838279724,2.043185234069824,-0.2782849073410034
1712834337934773200,18.799773193359375,-0.9307345151901245,2.3078384399414062,0.23335444927215576
1712834337954773200,18.819773193359374,-0.8932284116744995,1.893681526184082,0.8374554514884949
1712834337974773000,18.83977294921875,-0.7615158557891846,1.0742921829223633,1.202917456626892
1712834337994773000,18.85977294921875,-0.500771164894104,0.2719249725341797,1.4614405632019043
1712834338014773200,18.879773193359377,-0.3018324375152588,-0.41159915924072266,1.6165502071380615
1712834338034773200,18.899773193359376,-0.21816980838775635,-0.7981863021850586,1.4466471672058105
1712834338054773200,18.919773193359376,-0.3164675235748291,-0.9315099716186523,0.9433190822601318
1712834338074773200,18.939773193359375,-0.6015579700469971,-0.7586727142333984,0.3629354238510132
1712834338094773200,18.959773193359375,-0.8994749784469604,-0.6846628189086914,-0.24080371856689453
1712834338114773000,18.97977294921875,-0.90375816822052,-0.5641355514526367,-0.5660727024078369
1712834338134773000,18.99977294921875,-0.709896445274353,-0.33281517028808594,-0.7944709062576294
1712834338154773000,19.01977294921875,-0.37174904346466064,-0.14084625244140625,-0.9469434022903442
1712834338174773000,19.03977294921875,-0.15749752521514893,0.276641845703125,-1.1235491037368774
1712834338194773000,19.05977294921875,-0.18229055404663086,0.6651248931884766,-1.3836263418197632
1712834338214773000,19.07977294921875,-0.34069597721099854,0.7474641799926758,-1.4872965812683105
1712834338234773000,19.09977294921875,-0.3011050224304199,0.5652189254760742,-1.2800761461257935
1712834338254773000,19.11977294921875,-0.08810150623321533,0.37158966064453125,-0.8644837141036987
1712834338274773000,19.13977294921875,0.1923360824584961,0.2540626525878906,-0.47510087490081787
1712834338294773000,19.15977294921875,0.31266510486602783,-0.02306365966796875,-0.31287920475006104
1712834338314773000,19.17977294921875,0.22733068466186523,-0.2808065414428711,-0.3059101104736328
1712834338334773000,19.19977294921875,-0.07142090797424316,-0.1240243911743164,-0.5356848239898682
1712834338354773000,19.21977294921875,-0.35046958923339844,-0.2622861862182617,-0.624732255935669
1712834338374773200,19.239773193359376,-0.44893503189086914,-0.42327404022216797,-0.5316183567047119
1712834338394773200,19.259773193359376,-0.5812485218048096,-0.5100975036621094,-0.460679292678833
1712834338414773200,19.279773193359375,-0.5949997901916504,-0.5046825408935547,-0.4912417531013489
1712834338434773200,19.299773193359375,-0.5940427780151367,-0.4639320373535156,-0.5873822569847107
1712834338454773200,19.319773193359374,-0.5536680221557617,-0.46408557891845703,-0.6844988465309143
1712834338474773000,19.33977294921875,-0.6264235973358154,-0.3349761962890625,-0.9459882974624634
1712834338494773000,19.35977294921875,-0.7671504020690918,-0.15455245971679688,-1.190633773803711
1712834338514773200,19.379773193359377,-0.9128872156143188,0.009794235229492188,-1.2980098724365234
1712834338534773200,19.399773193359376,-0.902985692024231,0.17155075073242188,-1.262192964553833
1712834338554773200,19.419773193359376,-0.7399767637252808,0.15246295928955078,-1.1829211711883545
1712834338574773200,19.439773193359375,-0.804343581199646,0.16902637481689453,-1.17913818359375
1712834338594740200,19.459740234375,-0.36128735542297363,0.2634296417236328,-1.0397931337356567
1712834338614706400,19.47970654296875,0.3876152038574219,1.291682243347168,-1.33646821975708
1712834338634673200,19.499673095703123,0.6277890205383301,0.7402439117431641,-1.2345842123031616
1712834338654639900,19.519639892578127,0.5765528678894043,0.15438365936279297,-1.1100430488586426
1712834338674606600,19.539606689453127,0.31327342987060547,-0.3192720413208008,-1.292244553565979
1712834338694573000,19.559572998046875,-0.10616517066955566,-0.3632049560546875,-1.5870229005813599
1712834338714539800,19.579539794921875,-0.48044300079345703,-0.028394699096679688,-1.8959593772888184
1712834338734506800,19.5995068359375,-0.9574950933456421,0.6297769546508789,-1.665955901145935
1712834338754473500,19.619473388671874,-0.9164975881576538,0.5240898132324219,-0.8912525177001953
1712834338774440200,19.639440185546874,-0.5237324237823486,0.7052278518676758,0.1342666745185852
1712834338794406700,19.65940673828125,-0.34964704513549805,0.3459949493408203,0.8876516819000244
1712834338814373400,19.679373291015626,-0.3641395568847656,0.06612586975097656,1.3581178188323975
1712834338834340000,19.699340087890626,-0.39412403106689453,0.07465648651123047,1.368727445602417
1712834338854306800,19.719306884765626,-0.5222032070159912,0.21430587768554688,1.6815783977508545
1712834338874273500,19.7392734375,-0.570166826248169,0.23042869567871094,1.7402037382125854
1712834338894240000,19.759239990234374,-0.7563216686248779,-0.11992263793945312,2.079723834991455
1712834338914206700,19.779206787109374,-0.8050272464752197,-0.10071277618408203,2.160944938659668
1712834338934173400,19.79917333984375,-0.30679774284362793,-0.5637674331665039,2.7223081588745117
1712834338954140200,19.81914013671875,-0.33962106704711914,-0.54833984375,2.7928247451782227
1712834338974106400,19.8391064453125,-0.050763845443725586,-0.2636137008666992,2.3818044662475586
1712834338994073000,19.859072998046877,-0.03576231002807617,-0.04507637023925781,1.9748634099960327
1712834339014039800,19.879039794921876,-0.03319859504699707,-0.0421295166015625,2.0138397216796875
1712834339034006500,19.899006591796876,-0.014754056930541992,-0.006703376770019531,1.5127062797546387
1712834339053973000,19.918972900390624,0.08444476127624512,0.0051975250244140625,1.3341236114501953
1712834339073940200,19.938940185546876,0.21047377586364746,0.07143020629882812,1.1915466785430908
1712834339093907200,19.9589072265625,0.25006723403930664,0.059658050537109375,1.1909818649291992
1712834339113873700,19.978873779296876,0.33995699882507324,0.08091545104980469,1.2413438558578491
1712834339133840100,19.998840087890624,0.2896239757537842,-0.18961238861083984,1.2961814403533936
1712834339153806800,20.018806884765624,0.2166004180908203,-0.22959136962890625,1.444554328918457
1712834339173773600,20.038773681640624,0.025854110717773438,-0.058094024658203125,1.414609670639038
1712834339193773000,20.05877294921875,-0.14653992652893066,-0.028420448303222656,1.161232352256775
1712834339213773000,20.07877294921875,-0.24159455299377441,-0.11122417449951172,1.0024088621139526
1712834339233773600,20.098773681640626,-0.3024158477783203,-0.26161861419677734,1.0876166820526123
1712834339253773600,20.118773681640626,-0.17836856842041016,-0.4873046875,1.2403279542922974
1712834339273773600,20.138773681640625,-0.17580723762512207,-0.49007511138916016,1.2154868841171265
1712834339293773600,20.158773681640625,-0.11669492721557617,-0.6276884078979492,1.241931438446045
1712834339313773600,20.178773681640624,-0.32033586502075195,-0.49448490142822266,1.2243015766143799
1712834339333773300,20.198773193359376,-0.4484126567840576,-0.3183460235595703,1.2537202835083008
1712834339353773300,20.218773193359375,-0.5217611789703369,-0.24384403228759766,1.2526748180389404
1712834339373773300,20.238773193359375,-0.5295050144195557,-0.23683643341064453,1.3085308074951172
1712834339393772800,20.258772705078126,-0.5259652137756348,0.2745542526245117,1.284097671508789
1712834339413772800,20.278772705078126,-0.4458005428314209,0.28426265716552734,1.512827754020691
1712834339433772800,20.298772705078125,-0.3550543785095215,0.26167869567871094,1.8893799781799316
1712834339453772800,20.318772705078125,-0.26925230026245117,0.18517112731933594,2.245732307434082
1712834339473772300,20.338772216796876,-0.26201391220092773,0.23387432098388672,2.519465684890747
1712834339493772300,20.358772216796876,-0.4586954116821289,0.7180156707763672,2.4880480766296387
1712834339513772300,20.378772216796875,-0.5232396125793457,0.7465429306030273,2.550699234008789
1712834339533772300,20.398772216796875,-0.6757175922393799,1.0711297988891602,2.1900134086608887
1712834339553772300,20.418772216796874,-0.9551856517791748,1.6862297058105469,1.5143458843231201
1712834339573772300,20.438772216796874,-1.2963218688964844,1.6092777252197266,1.1345182657241821
1712834339593772000,20.45877197265625,-1.5039058923721313,1.278656005859375,0.7921155691146851
1712834339613772000,20.47877197265625,-1.6230559349060059,0.8215169906616211,0.45323264598846436
1712834339633772000,20.49877197265625,-1.655440330505371,0.8393335342407227,0.48918282985687256
1712834339653771800,20.518771728515624,-1.5784820318222046,0.08237361907958984,-0.35436582565307617
1712834339673771300,20.538771240234375,-1.6078695058822632,0.015521049499511719,-0.9809136390686035
1712834339693771000,20.55877099609375,-1.5828009843826294,0.0013608932495117188,-1.0100655555725098
1712834339713771000,20.57877099609375,-1.6217057704925537,-0.4442176818847656,-2.2500650882720947
1712834339733771300,20.598771240234374,-1.518286943435669,-0.4036216735839844,-3.061159610748291
1712834339753770800,20.618770751953125,-1.6374820470809937,0.17565441131591797,-3.9599924087524414
1712834339773770800,20.638770751953125,-1.588084101676941,0.1385498046875,-4.102012634277344
1712834339793771000,20.65877099609375,-1.7304296493530273,-0.1774158477783203,-4.2861647605896
1712834339813771000,20.67877099609375,-1.4249451160430908,-0.8972759246826172,-3.583282947540283
1712834339833770800,20.698770751953123,-1.2949832677841187,-1.4477672576904297,-2.5504209995269775
1712834339853770800,20.718770751953127,-1.3052161931991577,-1.4523382186889648,-2.638244867324829
1712834339873770800,20.738770751953126,-1.210256814956665,-1.2695245742797852,-0.5659162998199463
1712834339893770800,20.758770751953126,-1.242783784866333,-1.259103775024414,-0.5645534992218018
1712834339913770800,20.778770751953125,-1.370935082435608,-0.07989120483398438,0.4526365101337433
1712834339933770800,20.798770751953125,-2.1312553882598877,2.220155715942383,2.686774730682373
1712834339953770800,20.818770751953124,-1.8047540187835693,2.565176010131836,3.632951259613037
1712834339973770800,20.838770751953124,-1.8288369178771973,2.5833044052124023,3.7260568141937256
1712834339993771300,20.858771240234375,-0.8804895877838135,2.992034912109375,4.103066921234131
1712834340013771300,20.878771240234375,-0.26927995681762695,1.8444271087646484,2.6304993629455566
1712834340033771300,20.898771240234375,-0.22448015213012695,1.838923454284668,2.7006521224975586
1712834340053771300,20.918771240234374,-1.1418989896774292,0.9970302581787109,1.1904858350753784
1712834340073771500,20.938771484375,-2.260885715484619,0.5912332534790039,0.006167292594909668
1712834340093771800,20.958771728515625,-3.3702259063720703,0.24233531951904297,-1.2165398597717285
1712834340113771800,20.978771728515625,-4.352720260620117,0.21698379516601562,-2.7430577278137207
1712834340133771800,20.998771728515624,-3.9982593059539795,0.6309175491333008,-3.308328628540039
1712834340153771800,21.018771728515624,-3.375761032104492,0.6273984909057617,-3.2982988357543945
1712834340173771800,21.038771728515623,-3.362868547439575,0.6295862197875977,-3.258359909057617
1712834340193772000,21.05877197265625,-2.285703659057617,0.755218505859375,-1.8176511526107788
1712834340213772000,21.07877197265625,-1.7622740268707275,0.663701057434082,-1.2907545566558838
1712834340233772300,21.098772216796874,-1.1737864017486572,0.35851097106933594,-1.064616322517395
1712834340253772500,21.1187724609375,-1.134416103363037,0.36048126220703125,-0.9889713525772095
1712834340273772500,21.1387724609375,-0.2507951259613037,0.27171993255615234,-1.096380352973938
1712834340293772500,21.1587724609375,-0.16639232635498047,0.2520008087158203,-1.0796445608139038
1712834340313772500,21.1787724609375,0.005597352981567383,0.12535762786865234,-1.3762317895889282
1712834340333772300,21.198772216796876,-0.43884384632110596,0.5564804077148438,-2.730825901031494
1712834340353772800,21.218772705078123,-0.8331347703933716,0.7010278701782227,-3.701294422149658
1712834340373772800,21.238772705078127,-1.0041075944900513,0.6463680267333984,-3.9765536785125732
1712834340393772800,21.258772705078126,-1.0045021772384644,0.6200618743896484,-4.184504985809326
1712834340413772800,21.278772705078126,-0.513237714767456,0.34699249267578125,-3.1876707077026367
1712834340433772800,21.298772705078125,-0.20332551002502441,-0.16985416412353516,-2.7845518589019775
1712834340453772800,21.318772705078125,-0.26092529296875,-0.16843700408935547,-2.992495536804199
1712834340473772800,21.338772705078124,-0.22564983367919922,-0.4953765869140625,-2.727736234664917
1712834340493772800,21.358772705078124,-0.46675992012023926,-0.17673206329345703,-3.0733025074005127
1712834340513772800,21.378772705078124,-0.8661164045333862,0.06909847259521484,-3.2794644832611084
1712834340533772800,21.398772705078127,-1.3563696146011353,0.23177814483642578,-3.3089118003845215
1712834340553772800,21.418772705078126,-1.7591578960418701,0.1530132293701172,-2.9318103790283203
1712834340573772800,21.438772705078126,-1.756358027458191,-0.09781455993652344,-2.155100107192993
1712834340593773000,21.45877294921875,-1.3693606853485107,-0.38974666595458984,-1.099517822265625
1712834340613773000,21.47877294921875,-0.887061595916748,-1.0883979797363281,0.023153841495513916
1712834340633773000,21.49877294921875,-0.44528746604919434,-1.299668312072754,0.935041606426239
1712834340653773000,21.51877294921875,-0.3420372009277344,-1.089980125427246,1.0182018280029297
1712834340673773000,21.53877294921875,-0.4900228977203369,-0.7341203689575195,0.20591914653778076
1712834340693772500,21.5587724609375,-0.5096831321716309,-0.7293539047241211,0.21403902769088745
1712834340713772500,21.5787724609375,-0.369962215423584,-0.4917430877685547,-0.7207456231117249
1712834340733772800,21.598772705078126,-0.13259601593017578,0.725916862487793,-2.6456551551818848
1712834340753772800,21.618772705078126,-0.3634970188140869,1.4253625869750977,-3.505929470062256
1712834340773772800,21.638772705078125,-0.33339548110961914,1.4106168746948242,-3.43135142326355
1712834340793772800,21.658772705078125,-0.6617138385772705,0.4315929412841797,-4.590291976928711
1712834340813772800,21.678772705078124,-0.7561662197113037,-0.023942947387695312,-4.571661472320557
1712834340833772500,21.6987724609375,-0.804364800453186,-0.06220436096191406,-4.424689292907715
1712834340853772500,21.7187724609375,-1.064136266708374,0.28411293029785156,-4.119411468505859
1712834340873772500,21.7387724609375,-1.3314257860183716,0.7569637298583984,-3.5781102180480957
1712834340893772500,21.7587724609375,-1.498400330543518,1.284719467163086,-2.643061399459839
1712834340913772500,21.7787724609375,-1.564483880996704,1.5153312683105469,-1.2935831546783447
1712834340933772500,21.7987724609375,-1.301004409790039,1.5385732650756836,0.03260987997055054
1712834340953772500,21.8187724609375,-1.3278543949127197,1.541635513305664,0.17529168725013733
1712834340973772500,21.8387724609375,-0.8030229806900024,1.0569181442260742,0.9132344722747803
1712834340993772500,21.8587724609375,-0.9263749122619629,0.7065010070800781,0.6385197639465332
1712834341013772500,21.8787724609375,-1.3754849433898926,0.5387172698974609,0.34215134382247925
1712834341033772500,21.8987724609375,-1.4935989379882812,0.5735578536987305,0.47706806659698486
1712834341053772500,21.9187724609375,-1.8580868244171143,-0.11736869812011719,-0.02008765935897827
1712834341073772500,21.9387724609375,-1.8688699007034302,-0.2976388931274414,0.06992840766906738
1712834341093772800,21.958772705078125,-1.872934103012085,-0.0804147720336914,0.1498103141784668
1712834341113772800,21.978772705078125,-1.7857370376586914,0.3582267761230469,0.1040533185005188
1712834341133772800,21.998772705078125,-1.7570583820343018,1.1287164688110352,0.10214662551879883
1712834341153772800,22.018772705078124,-1.7918452024459839,1.6013116836547852,0.28480589389801025
1712834341173772800,22.038772705078124,-1.59348464012146,1.629201889038086,0.5337347984313965
1712834341193772500,22.0587724609375,-1.4539246559143066,1.4032964706420898,0.8226654529571533
1712834341213772500,22.0787724609375,-1.3612549304962158,0.8183507919311523,1.3275172710418701
1712834341233772800,22.098772705078126,-1.0887768268585205,0.5129079818725586,1.6725131273269653
1712834341253772800,22.118772705078126,-1.04917311668396,0.3205099105834961,1.645021915435791
1712834341273772800,22.138772705078125,-1.0999372005462646,0.08471870422363281,1.3770734071731567
1712834341293773000,22.15877294921875,-1.238816261291504,0.1059885025024414,1.122492790222168
1712834341313773000,22.17877294921875,-1.4139535427093506,-0.07391738891601562,0.8377598524093628
1712834341333772800,22.198772705078124,-1.442549467086792,-0.2275867462158203,0.7713438272476196
1712834341353772800,22.218772705078123,-1.3867220878601074,-0.25048255920410156,0.7779737710952759
1712834341373772800,22.238772705078127,-1.4314789772033691,-0.23934268951416016,0.5135699510574341
1712834341393772800,22.258772705078126,-1.2426071166992188,-0.4925870895385742,0.21889019012451172
1712834341413772800,22.278772705078126,-1.1288087368011475,-0.14882469177246094,0.3243710994720459
1712834341433772800,22.298772705078125,-0.9948458671569824,-0.06189918518066406,0.46420717239379883
1712834341453772800,22.318772705078125,-0.7171087265014648,-0.22382450103759766,0.43448352813720703
1712834341473772800,22.338772705078124,-0.5994110107421875,-0.27988433837890625,0.38253092765808105
1712834341493772800,22.358772705078124,-0.6671543121337891,-0.24517154693603516,0.3689446449279785
1712834341513772800,22.378772705078124,-0.9593410491943359,-0.2456798553466797,0.5820033550262451
1712834341533772800,22.398772705078127,-0.9959741830825806,-0.3805055618286133,0.9991694688796997
1712834341553772800,22.418772705078126,-0.8473871946334839,-0.43244171142578125,0.9673670530319214
1712834341573772800,22.438772705078126,-0.4835634231567383,0.18984127044677734,1.478878378868103
1712834341593773000,22.45877294921875,-0.17209696769714355,0.39554882049560547,1.3250378370285034
1712834341613773000,22.47877294921875,0.0597231388092041,0.5276613235473633,1.2086071968078613
1712834341633773000,22.49877294921875,0.29296278953552246,1.094106674194336,0.9031635522842407
1712834341653773000,22.51877294921875,0.4265859127044678,1.6096305847167969,0.43036556243896484
1712834341673773000,22.53877294921875,0.46770405769348145,1.4143991470336914,0.2350785732269287
1712834341693772800,22.558772705078123,0.6750876903533936,0.9943075180053711,0.7909797430038452
1712834341713772800,22.578772705078126,2.999274492263794,2.055267333984375,1.4229295253753662
1712834341733773000,22.59877294921875,4.587031364440918,1.3112659454345703,0.6434744596481323
1712834341753773000,22.61877294921875,3.887984275817871,-0.16968250274658203,-0.06878232955932617
1712834341773773000,22.63877294921875,3.835134506225586,-0.15459632873535156,-0.03820061683654785
1712834341793773000,22.65877294921875,1.607204556465149,-0.244903564453125,-0.42046236991882324
1712834341813773000,22.67877294921875,-1.7107927799224854,-0.14170265197753906,-1.9355008602142334
1712834341833772800,22.698772705078124,-1.3408114910125732,-0.1311044692993164,-1.6925582885742188
1712834341853772800,22.718772705078123,-0.5036290884017944,-0.169952392578125,-1.247558832168579
1712834341873772800,22.738772705078127,0.47923076152801514,-0.5311660766601562,-0.2817978858947754
1712834341893772800,22.758772705078126,0.35248494148254395,-0.5225095748901367,-0.34857869148254395
1712834341913772800,22.778772705078126,0.5218948125839233,-1.195627212524414,1.27950119972229
1712834341933772800,22.798772705078125,-0.54345703125,-0.6673431396484375,0.6289862394332886
1712834341953772800,22.818772705078125,-0.6070799827575684,-0.6644296646118164,0.5761574506759644
1712834341973772800,22.838772705078124,-2.498128652572632,1.5795936584472656,-1.9547786712646484
1712834341993772800,22.858772705078124,-2.342543125152588,1.7844114303588867,-1.6446378231048584
1712834342013772800,22.878772705078124,-2.4464144706726074,1.8057365417480469,-1.667752981185913
1712834342033772800,22.898772705078127,-1.0408523082733154,1.0831899642944336,0.5967539548873901
1712834342053772800,22.918772705078126,-0.39730072021484375,0.5774164199829102,1.2743302583694458
1712834342073772800,22.938772705078126,-0.16135787963867188,0.01961231231689453,1.3680851459503174
1712834342093773000,22.95877294921875,-0.17837977409362793,-0.5207242965698242,0.9961038827896118
1712834342113773000,22.97877294921875,-0.17377185821533203,-0.5279998779296875,0.9658399820327759
1712834342133773000,22.99877294921875,-0.6984913349151611,-0.7762765884399414,-0.07902848720550537
1712834342153773000,23.01877294921875,-0.6666646003723145,-0.7973909378051758,-0.14487290382385254
1712834342173773000,23.03877294921875,-1.0870695114135742,-0.8970022201538086,-0.9885551929473877
1712834342193772800,23.058772705078123,-1.057114839553833,-0.9201927185058594,-1.0783708095550537
1712834342213772800,23.078772705078126,-1.1851660013198853,-0.7240190505981445,-1.396618127822876
1712834342233773000,23.09877294921875,-1.2543649673461914,-0.35033512115478516,-1.695116639137268
1712834342253773000,23.11877294921875,-1.3581761121749878,0.27328968048095703,-1.5700329542160034
1712834342273773000,23.13877294921875,-1.1691820621490479,0.3038825988769531,-1.2415975332260132
1712834342293773000,23.15877294921875,-1.144909143447876,0.2943534851074219,-1.2672942876815796
1712834342313773000,23.17877294921875,-0.9349877834320068,0.3374652862548828,-0.8444455862045288
1712834342333772800,23.198772705078124,-0.962241530418396,0.933680534362793,-0.3939392566680908
1712834342353772800,23.218772705078123,-0.9949594736099243,1.0232820510864258,-0.12066161632537842
1712834342373772800,23.238772705078127,-0.9293891191482544,1.020120620727539,0.29211604595184326
1712834342393772800,23.258772705078126,-0.8074662685394287,0.57452392578125,0.7827861905097961
1712834342413772800,23.278772705078126,-0.3824418783187866,-0.005270957946777344,1.1346515417099
1712834342433772800,23.298772705078125,-0.11764073371887207,-0.09910202026367188,1.0842831134796143
1712834342453772800,23.318772705078125,-0.11731314659118652,-0.09398746490478516,1.1176940202713013
1712834342473772800,23.338772705078124,-0.5324079990386963,-0.5476284027099609,0.4870997667312622
1712834342493772800,23.358772705078124,-0.6188578605651855,-0.7583503723144531,0.33263707160949707
1712834342513772800,23.378772705078124,-0.6140854358673096,-0.7579278945922852,0.34234845638275146
1712834342533772800,23.398772705078127,-0.6300128698348999,-0.5301685333251953,-0.09313905239105225
1712834342553772800,23.418772705078126,-0.5615692138671875,-0.09784317016601562,-0.689213752746582
1712834342573772800,23.438772705078126,-0.4124261140823364,0.46459007263183594,-0.9440157413482666
1712834342593773000,23.45877294921875,-0.5238933563232422,1.0074710845947266,-0.9782658815383911
1712834342613773000,23.47877294921875,-0.3454146385192871,1.329157829284668,-0.9763141870498657
1712834342633773000,23.49877294921875,-0.3387932777404785,1.3317079544067383,-0.9500012397766113
1712834342653773000,23.51877294921875,0.16453003883361816,0.7596197128295898,-0.7270835638046265
1712834342673773000,23.53877294921875,0.36930370330810547,0.38396263122558594,-0.3599064350128174
1712834342693772800,23.558772705078123,0.28367114067077637,-0.019031524658203125,-0.17098307609558105
1712834342713772800,23.578772705078126,0.14916133880615234,-0.30615711212158203,0.11983907222747803
1712834342733773000,23.59877294921875,0.19843816757202148,-0.3956327438354492,0.496661901473999
1712834342753773000,23.61877294921875,0.18320298194885254,-0.39275169372558594,0.4924435615539551
1712834342773773000,23.63877294921875,0.10501384735107422,-0.3460683822631836,1.087507963180542
1712834342793773000,23.65877294921875,0.06455826759338379,-0.33829307556152344,1.0753846168518066
1712834342813773000,23.67877294921875,-0.22351837158203125,0.00984954833984375,1.0631217956542969
1712834342833772800,23.698772705078124,-0.09515070915222168,-0.15253543853759766,1.0682564973831177
1712834342853772800,23.718772705078123,-0.012609004974365234,-0.24102783203125,0.9648295044898987
1712834342873772800,23.738772705078127,-0.07451939582824707,-0.17389488220214844,0.9139178991317749
1712834342893772800,23.758772705078126,-0.044666290283203125,-0.07101631164550781,1.0188252925872803
1712834342913772800,23.778772705078126,0.18391060829162598,0.12357425689697266,1.0426208972930908
1712834342933772800,23.798772705078125,0.5433108806610107,0.23362350463867188,1.0879887342453003
1712834342953772800,23.818772705078125,0.5124058723449707,0.24405384063720703,1.098941683769226
1712834342973772800,23.838772705078124,0.7922124862670898,0.3065052032470703,1.0042160749435425
1712834342993772800,23.858772705078124,0.88722825050354,0.20396041870117188,0.8145977258682251
1712834343013772800,23.878772705078124,0.9955098628997803,0.16016578674316406,0.47041940689086914
1712834343033772800,23.898772705078127,0.9063205718994141,0.00007915496826171875,0.027046680450439453
1712834343053772800,23.918772705078126,0.7884299755096436,-0.44124412536621094,-0.30301570892333984
1712834343073772800,23.938772705078126,0.7498118877410889,-0.8487834930419922,-0.5073158740997314
1712834343093772800,23.958772705078125,0.782951831817627,-1.1035232543945312,-0.6500680446624756
1712834343113772800,23.978772705078125,0.7017097473144531,-1.117685317993164,-0.8519623279571533
1712834343133772800,23.998772705078125,0.44084811210632324,-0.8482198715209961,-1.0338226556777954
1712834343153772800,24.018772705078124,0.31749415397644043,-0.7050409317016602,-0.9810723066329956
1712834343173772800,24.038772705078124,0.3599421977996826,-0.5225687026977539,-0.7919564247131348
1712834343193772800,24.058772705078123,0.5186049938201904,-0.6647663116455078,-0.40235674381256104
1712834343213772800,24.078772705078126,0.7201216220855713,-0.9199485778808594,-0.020838499069213867
1712834343233773000,24.09877294921875,0.9202618598937988,-1.1268644332885742,0.2558198571205139
1712834343253773000,24.11877294921875,0.9526805877685547,-1.256582260131836,0.31879937648773193
1712834343273773000,24.13877294921875,0.7251923084259033,-1.277078628540039,0.29687047004699707
1712834343293773000,24.15877294921875,0.5062024593353271,-1.2020740509033203,0.3410601019859314
1712834343313773000,24.17877294921875,0.4208354949951172,-0.9158220291137695,0.41937804222106934
1712834343333772800,24.198772705078124,0.4306600093841553,-0.5731372833251953,0.4591849446296692
1712834343353772800,24.218772705078123,0.38266897201538086,0.046647071838378906,0.40406912565231323
1712834343373772800,24.238772705078127,0.39266252517700195,0.7925920486450195,0.2856906056404114
1712834343393772800,24.258772705078126,0.450730562210083,1.6048908233642578,0.0904538631439209
1712834343413772800,24.278772705078126,0.45737338066101074,1.6279048919677734,-0.04105675220489502
1712834343433772800,24.298772705078125,0.5012824535369873,0.8881731033325195,0.029572725296020508
1712834343453772800,24.318772705078125,0.5470476150512695,0.05408763885498047,0.12677979469299316
1712834343473772800,24.338772705078124,0.5396993160247803,-0.5173196792602539,-0.028214573860168457
1712834343493772800,24.358772705078124,0.32465505599975586,-0.6866426467895508,-0.3066481351852417
1712834343513772800,24.378772705078124,0.041033267974853516,-0.534367561340332,-0.5753684043884277
1712834343533772800,24.398772705078127,-0.1388707160949707,-0.20972347259521484,-0.5575337409973145
1712834343553772800,24.418772705078126,-0.23012733459472656,-0.1395730972290039,-0.5072845220565796
1712834343573772800,24.438772705078126,-0.16382217407226562,-0.27045631408691406,-0.3636500835418701
1712834343593772800,24.458772705078125,-0.061142683029174805,-0.17871379852294922,-0.25244712829589844
1712834343613772800,24.478772705078125,-0.08092927932739258,-0.07074356079101562,-0.19495117664337158
1712834343633772800,24.498772705078125,-0.2067420482635498,0.034748077392578125,-0.08142101764678955
1712834343653772800,24.518772705078124,-0.4020519256591797,0.2004995346069336,0.08346915245056152
1712834343673772800,24.538772705078124,-0.5970845222473145,0.3479785919189453,0.2707315683364868
1712834343693772800,24.558772705078123,-0.6781587600708008,0.5734262466430664,0.4467647075653076
1712834343713772800,24.578772705078126,-0.6647999286651611,0.9444656372070312,0.5799541473388672
1712834343733773000,24.59877294921875,-0.6129486560821533,1.1945581436157227,0.8159394264221191
1712834343753773000,24.61877294921875,-0.3928847312927246,1.2003774642944336,1.0675370693206787
1712834343773773000,24.63877294921875,-0.41719841957092285,1.2200689315795898,1.131960153579712
1712834343793773000,24.65877294921875,-0.259136438369751,1.1053504943847656,1.2640260457992554
1712834343813773000,24.67877294921875,-0.22419428825378418,0.6369390487670898,1.0023260116577148
1712834343833772800,24.698772705078124,-0.22554516792297363,0.6450624465942383,1.0354299545288086
1712834343853772800,24.718772705078123,-0.354045033454895,0.5213422775268555,0.6472171545028687
1712834343873772800,24.738772705078127,-0.595488429069519,-0.15764713287353516,-0.00257110595703125
1712834343893772800,24.758772705078126,-0.5900651216506958,-0.16283798217773438,-0.018977880477905273
1712834343913772800,24.778772705078126,-0.6291722059249878,-0.26641082763671875,-0.24434900283813477
1712834343933772800,24.798772705078125,-0.6733083724975586,-0.2774925231933594,-0.48641204833984375
1712834343953772800,24.818772705078125,-0.799700140953064,-0.2825126647949219,-0.6696209907531738
1712834343973772800,24.838772705078124,-0.8945308923721313,-0.2802896499633789,-0.715618371963501
1712834343993772800,24.858772705078124,-0.9934289455413818,-0.15514087677001953,-0.6230108737945557
