time,seconds_elapsed,z,y,x
1712834319193159200,0.0581591796875,0.01572977937757969,0.06650795042514801,-0.033368512988090515
1712834319215170300,0.08017041015625,0.0065668015740811825,0.07017314434051514,-0.0443640872836113
1712834319235170300,0.10017041015625,0.020005837082862854,0.026190847158432007,-0.005879578180611134
1712834319255170300,0.12017041015625,0.026114489883184433,-0.01290452852845192,0.03810271993279457
1712834319275170300,0.14017041015625,0.01572977937757969,-0.009239336475729942,0.06498079001903534
1712834319295170300,0.16017041015625,0.00045814894838258624,0.027412578463554382,0.060704734176397324
1712834319315170300,0.18017041015625,0.010231993161141872,0.023747386410832405,0.03504839166998863
1712834319335170300,0.20017041015625,-0.008704829961061478,0.03352123126387596,0.0417679101228714
1712834319355170300,0.22017041015625,-0.004428773187100887,0.056123245507478714,0.05398521572351456
1712834319375171300,0.24017138671875,0.004734205547720194,0.03901901841163635,0.06803511828184128
1712834319395171300,0.26017138671875,-0.014813481830060482,0.04573853686451912,0.08452847599983215
1712834319415171300,0.28017138671875,-0.04841107130050659,0.09155342727899551,0.08330674469470978
1712834319435171300,0.30017138671875,-0.06185010448098183,0.0872773751616478,0.08941540122032166
1712834319455171300,0.32017138671875,-0.06734789162874222,0.0567341111600399,0.082085020840168
1712834319475171300,0.34017138671875,-0.03497203439474106,0.01702786795794964,0.09552405029535294
1712834319495171300,0.36017138671875,-0.030085112899541855,0.04207334294915199,0.1126282811164856
1712834319515172000,0.380172119140625,0.007177666760981083,0.15080735087394714,0.14866933226585388
1712834319535172000,0.400172119140625,0.13484850525856018,0.49289190769195557,0.16699528694152832
1712834319555172000,0.420172119140625,0.06276640295982361,0.7580074071884155,0.17615826427936554
1712834319575172000,0.440172119140625,0.24419337511062622,1.1208614110946655,0.2549598813056946
1712834319595094800,0.4600947265625,0.35292738676071167,1.5674039125442505,0.23174700140953064
1712834319615094800,0.4800947265625,0.44089198112487793,1.9443076848983765,0.2286926805973053
1712834319635094800,0.5000947265625,0.6968445181846619,2.298609495162964,0.31299206614494324
1712834319655094800,0.5200947265625,0.8788823485374451,2.736599922180176,0.3893502354621887
1712834319675094800,0.5400947265625,1.0102183818817139,3.1495449542999268,0.4510476291179657
1712834319695094800,0.5600947265625,1.1959214210510254,3.5704309940338135,0.47364965081214905
1712834319715094800,0.5800947265625,1.447597861289978,4.079892635345459,0.49808424711227417
1712834319735094800,0.6000947265625,1.7395914793014526,4.43969202041626,0.5133558511734009
1712834319755094800,0.6200947265625,2.0395262241363525,4.6785407066345215,0.44982588291168213
1712834319775094800,0.6400947265625,2.2453880310058594,4.809265613555908,0.3465896546840668
1712834319795094800,0.6600947265625,2.3602306842803955,4.728631496429443,0.2751184403896332
1712834319815094800,0.6800947265625,2.3993258476257324,4.197178840637207,0.1737148016691208
1712834319835094800,0.7000947265625,2.406656265258789,3.6382369995117188,0.11812606453895569
1712834319855094800,0.7200947265625,2.348013401031494,3.166649103164673,0.05887213721871376
1712834319875095300,0.74009521484375,2.1959078311920166,2.751260757446289,-0.056581392884254456
1712834319895095300,0.76009521484375,2.027308940887451,2.4232261180877686,-0.1249983012676239
1712834319915095300,0.78009521484375,1.8373299837112427,1.8722256422042847,-0.17203491926193237
1712834319935095300,0.80009521484375,1.600925087928772,1.3829225301742554,-0.19708040356636047
1712834319955095300,0.82009521484375,1.3168727159500122,0.9095019698143005,-0.23495404422283173
1712834319975094800,0.8400947265625,1.0175487995147705,0.5979607105255127,-0.3223077654838562
1712834319995094800,0.8600947265625,0.7774787545204163,0.1984548419713974,-0.36567920446395874
1712834320015095300,0.88009521484375,0.6039929986000061,-0.05016730725765228,-0.3064252734184265
1712834320035095300,0.90009521484375,0.5294674634933472,-0.6164394021034241,-0.24228443205356598
1712834320055095300,0.92009521484375,0.5820018649101257,-1.271286964416504,-0.10361801832914352
1712834320075095300,0.94009521484375,0.6724098920822144,-1.8051831722259521,0.05093089118599892
1712834320095095300,0.96009521484375,0.6772968173027039,-2.0043251514434814,0.11140654981136322
1712834320115094800,0.9800947265625,0.7548767328262329,-1.9768363237380981,0.042989641427993774
1712834320135094800,1.0000947265625,0.8856018781661987,-1.7618117332458496,0.09308059513568878
1712834320155094800,1.0200947265625,0.9198103547096252,-1.3647493124008179,0.16516269743442535
1712834320175094800,1.0400947265625,0.8294022679328918,-1.157055139541626,0.13400855660438538
1712834320195094800,1.0600947265625,0.7426594495773315,-1.1252901554107666,0.07108944654464722
1712834320215094800,1.0800947265625,0.6656904220581055,-0.994564950466156,0.06925684958696365
1712834320235094800,1.1000947265625,0.5319108963012695,-0.7746534943580627,0.07658722996711731
1712834320255094800,1.1200947265625,0.3669773042201996,-0.6176611185073853,0.031383201479911804
1712834320275094800,1.1400947265625,0.08720101416110992,-0.4722751975059509,-0.039477165788412094
1712834320295094800,1.1600947265625,-0.17852537333965302,-0.3372739851474762,-0.10422888398170471
1712834320315094800,1.1800947265625,-0.43508878350257874,-0.27435484528541565,-0.1750892549753189
1712834320335094800,1.2000947265625,-0.7008151412010193,-0.24503332376480103,-0.21357376873493195
1712834320355094800,1.2200947265625,-0.9488264322280884,-0.2810743749141693,-0.22273674607276917
1712834320375095300,1.24009521484375,-1.0270172357559204,-0.24992024898529053,-0.23434318602085114
1712834320395095300,1.26009521484375,-0.9879218339920044,-0.2267073690891266,-0.2557234764099121
1712834320415095300,1.28009521484375,-0.8810204267501831,-0.23525947332382202,-0.2526691257953644
1712834320435095300,1.30009521484375,-0.7790058851242065,-0.2767983078956604,-0.18364135921001434
1712834320455095300,1.32009521484375,-0.6562219858169556,-0.3537673354148865,-0.11583532392978668
1712834320475094800,1.3400947265625,-0.4680754840373993,-0.43684500455856323,-0.08040513843297958
1712834320495094800,1.3600947265625,-0.24572055041790009,-0.5419138073921204,-0.08895725011825562
1712834320515095300,1.38009521484375,-0.11438451707363129,-0.5449681282043457,-0.036422841250896454
1712834320535095300,1.40009521484375,-0.044745877385139465,-0.35010215640068054,0.0924697294831276
1712834320555095300,1.42009521484375,0.04749477282166481,0.0029779679607599974,0.1987602859735489
1712834320575095300,1.44009521484375,0.23380866646766663,0.33284521102905273,0.264122873544693
1712834320595095300,1.46009521484375,0.40362921357154846,0.552756667137146,0.31726813316345215
1712834320615094800,1.4800947265625,0.4665483236312866,0.5778021812438965,0.30077478289604187
1712834320635094800,1.5000947265625,0.4726569950580597,0.39393171668052673,0.19509509205818176
1712834320655094800,1.5200947265625,0.4158465266227722,0.04512767121195793,0.09674578160047531
1712834320675094800,1.5400947265625,0.3113885521888733,-0.31039589643478394,0.017333300784230232
1712834320695094800,1.5600947265625,0.1837177276611328,-0.5565745830535889,-0.015653422102332115
1712834320715094800,1.5800947265625,0.04932736977934837,-0.7080692052841187,-0.029703322798013687
1712834320735094800,1.6000947265625,-0.03497203439474106,-0.7037931084632874,-0.06879869848489761
1712834320755094800,1.6200947265625,-0.033139441162347794,-0.44539710879325867,-0.18791742622852325
1712834320775094800,1.6400947265625,-0.00809396430850029,-0.17844900488853455,-0.18975001573562622
1712834320795094800,1.6600947265625,0.0010690141934901476,0.03962988406419754,-0.17081318795681
1712834320815094800,1.6800947265625,-0.013591751456260681,0.19478964805603027,-0.17875444889068604
1712834320835094800,1.7000947265625,-0.058795779943466187,0.21433734893798828,-0.17936530709266663
1712834320855094800,1.7200947265625,-0.04963280260562897,0.09338602423667908,-0.14454598724842072
1712834320875095300,1.74009521484375,0.007788531947880983,-0.06604980677366257,-0.07735081017017365
1712834320895095300,1.76009521484375,0.010231993161141872,-0.21876612305641174,-0.05230533704161644
1712834320915095300,1.78009521484375,-0.010537425056099892,-0.28901562094688416,-0.08284860104322433
1712834320935095300,1.80009521484375,-0.0429132841527462,-0.3116176426410675,-0.03153591975569725
1712834320955095300,1.82009521484375,-0.050854530185461044,-0.4344015419483185,0.03810271993279457
1712834320975094800,1.8400947265625,-0.0025961773935705423,-0.5816200971603394,0.0466548316180706
1712834320995094800,1.8600947265625,0.021838432177901268,-0.577954888343811,0.082085020840168
1712834321015095300,1.88009521484375,0.020616702735424042,-0.4692208766937256,0.14439326524734497
1712834321035095300,1.90009521484375,0.037110064178705215,-0.3824779987335205,0.18593211472034454
1712834321055095300,1.92009521484375,0.07987063378095627,-0.2364812046289444,0.17493653297424316
1712834321075095300,1.94009521484375,0.12996158003807068,-0.013515393249690533,0.13950635492801666
1712834321095095300,1.96009521484375,0.14828753471374512,0.16913332045078278,0.06314819306135178
1712834321115094800,1.9800947265625,0.1745547503232956,0.29619327187538147,0.036880988627672195
1712834321135094800,2.0000947265625,0.19654589891433716,0.3242930769920349,0.07658722996711731
1712834321155094800,2.0200947265625,0.17150041460990906,0.30230194330215454,0.08575020730495453
1712834321175094800,2.0400947265625,0.06459899991750717,0.32307136058807373,0.07780896127223969
1712834321195094800,2.0600947265625,-0.030695978552103043,0.3536146283149719,0.07841982692480087
1712834321215094800,2.0800947265625,-0.11682797968387604,0.3352886736392975,0.057039543986320496
1712834321235094800,2.1000947265625,-0.2047925740480423,0.3548363447189331,-0.010766499675810337
1712834321255094800,2.1200947265625,-0.30253100395202637,0.42752930521965027,0.00022907447419129312
1712834321275094800,2.1400947265625,-0.39843684434890747,0.35239288210868835,0.05887213721871376
1712834321295094800,2.1600947265625,-0.461355984210968,0.15935947000980377,0.17676913738250732
1712834321315094800,2.1800947265625,-0.3501785099506378,-0.17234036326408386,0.3294854462146759
1712834321335094800,2.2000947265625,-0.17730364203453064,-0.45578181743621826,0.4198935031890869
1712834321355094800,2.2200947265625,-0.09972374886274338,-0.5211443901062012,0.544510006904602
1712834321375095300,2.24009521484375,-0.1840231567621231,-0.48143815994262695,0.7045567035675049
1712834321395095300,2.26009521484375,-0.25671613216400146,-0.5883395671844482,0.7387651801109314
1712834321415095300,2.28009521484375,-0.299476683139801,-0.8198575377464294,0.677067756652832
1712834321435095300,2.30009521484375,-0.3459024429321289,-1.1008555889129639,0.6092617511749268
1712834321455095300,2.32009521484375,-0.3831652104854584,-1.31038236618042,0.48953214287757874
1712834321475094800,2.3400947265625,-0.3459024429321289,-1.3714687824249268,0.31238120794296265
1712834321495094800,2.3600947265625,-0.2701551616191864,-1.353753685951233,0.13889548182487488
1712834321515095300,2.38009521484375,-0.24083362519741058,-1.3067171573638916,0.0668133869767189
1712834321535095300,2.40009521484375,-0.17608191072940826,-1.2780064344406128,0.07658722996711731
1712834321555095300,2.42009521484375,-0.07590000331401825,-1.158276915550232,0.013057244941592216
1712834321575095300,2.44009521484375,-0.07284568250179291,-0.9175959825515747,-0.012599095702171326
1712834321595095300,2.46009521484375,-0.12660181522369385,-0.7386124134063721,0.04787656292319298
1712834321615094800,2.4800947265625,-0.009926560334861279,-0.7184538841247559,0.012446379289031029
1712834321635094800,2.5000947265625,0.10980302840471268,-0.7141778469085693,0.03260493278503418
1712834321655094800,2.5200947265625,0.08964447677135468,-0.6940192580223083,0.11934779584407806
1712834321675094800,2.5400947265625,0.1788308024406433,-0.6066655516624451,0.12362385541200638
1712834321695094800,2.5600947265625,0.19226983189582825,-0.5602397918701172,0.1175151988863945
1712834321715094800,2.5800947265625,0.1849394589662552,-0.5529094338417053,0.06986771523952484
1712834321735094800,2.6000947265625,0.2716823220252991,-0.3262783885002136,-0.0694095641374588
1712834321755094800,2.6200947265625,0.19532416760921478,-0.0391717329621315,-0.11033753305673599
1712834321775094800,2.6400947265625,0.007788531947880983,0.21189388632774353,-0.08773551881313324
1712834321795094800,2.6600947265625,-0.13515393435955048,-0.07215845584869385,-0.282601535320282
1712834321815094800,2.6800947265625,-0.0013744467869400978,-0.2755765914916992,-0.4799109995365143
1712834321835094800,2.7000947265625,-0.026419922709465027,-0.5119814276695251,-0.34002286195755005
1712834321855094800,2.7200947265625,-0.08811730891466141,-0.7227299213409424,-0.40477457642555237
1712834321875095300,2.74009521484375,-0.02886338345706463,-0.8149706125259399,-0.5916993618011475
1712834321895095300,2.76009521484375,0.04260785132646561,-0.8051967620849609,-0.6106361746788025
1712834321915095300,2.78009521484375,0.0377209298312664,-0.7960337996482849,-0.6307947039604187
1712834321935095300,2.80009521484375,-0.12293662875890732,-0.6604216694831848,-0.606360137462616
1712834321955095300,2.82009521484375,-0.08078692853450775,-0.6683629155158997,-0.5477170348167419
1712834321975094800,2.8400947265625,0.21181751787662506,-0.3617085814476013,-0.47074803709983826
1712834321995094800,2.8600947265625,0.2808452844619751,-0.07887797802686691,-0.2764928936958313
1712834322015095300,2.88009521484375,0.15073099732398987,0.1837940812110901,-0.09506590664386749
1712834322035095300,2.90009521484375,0.13607023656368256,0.40309470891952515,-0.13355042040348053
1712834322055095300,2.92009521484375,0.15806138515472412,0.4409683346748352,-0.20196732878684998
1712834322075095300,2.94009521484375,0.27290403842926025,0.5515349507331848,-0.301538348197937
1712834322095095300,2.96009521484375,0.3572034537792206,0.6810383796691895,-0.4072180390357971
1712834322115094800,2.9800947265625,0.35414913296699524,0.7366271018981934,-0.4432590901851654
1712834322135094800,3.0000947265625,0.304669052362442,0.5863542556762695,-0.5086216926574707
1712834322155094800,3.0200947265625,0.2955060601234436,0.20639608800411224,-0.6619488596916199
1712834322175094800,3.0400947265625,0.25824329257011414,0.0518471859395504,-0.748080849647522
1712834322195094800,3.0600947265625,0.14584407210350037,0.11598803848028183,-0.6619488596916199
1712834322215094800,3.0800947265625,0.08903361111879349,0.12331841886043549,-0.5080108046531677
1712834322235094800,3.1000947265625,0.12568552792072296,0.010919216088950634,-0.37972912192344666
1712834322255094800,3.1200947265625,0.10247264802455902,-0.08743008971214294,-0.31925344467163086
1712834322275094800,3.1400947265625,0.09758572280406952,-0.19372063875198364,-0.2758820056915283
1712834322295094800,3.1600947265625,0.1189660057425499,-0.4789946973323822,-0.17447838187217712
1712834322315094800,3.1800947265625,0.20143280923366547,-0.8485682010650635,-0.15309810638427734
1712834322335094800,3.2000947265625,0.28695395588874817,-1.1320096254348755,-0.2508365511894226
1712834322355094800,3.2200947265625,0.3712533414363861,-1.2095896005630493,-0.26366472244262695
1712834322375095300,3.24009521484375,0.4537201523780823,-1.1973721981048584,-0.15676330029964447
1712834322395095300,3.26009521484375,0.5343543887138367,-1.3207670450210571,0.057039543986320496
1712834322415095300,3.28009521484375,0.5593998432159424,-1.4386639595031738,0.24518603086471558
1712834322435095300,3.30009521484375,0.5838344693183899,-1.5278503894805908,0.3612504303455353
1712834322455095300,3.32009521484375,0.556345522403717,-1.5907694101333618,0.4913647174835205
1712834322475094800,3.3400947265625,0.48426342010498047,-1.5498415231704712,0.6263659596443176
1712834322495094800,3.3600947265625,0.4677700698375702,-1.3842970132827759,0.6843981742858887
1712834322515095300,3.38009521484375,0.4714352488517761,-1.2645673751831055,0.7955756187438965
1712834322535095300,3.40009521484375,0.3523165285587311,-1.1026880741119385,0.8609381914138794
1712834322555095300,3.42009521484375,0.2252565622329712,-0.9066003561019897,0.8169559240341187
1712834322575095300,3.44009521484375,0.12202033400535583,-0.729449450969696,0.7473172545433044
1712834322595095300,3.46009521484375,0.001679879380390048,-0.6976844668388367,0.6709591150283813
1712834322615094800,3.4800947265625,-0.14553864300251007,-0.7477754354476929,0.46387580037117004
1712834322635094800,3.5000947265625,-0.26771169900894165,-0.6396522521972656,0.38201984763145447
1712834322655094800,3.5200947265625,-0.27320948243141174,-0.17234036326408386,0.3239876627922058
1712834322675094800,3.5400947265625,-0.24877487123012543,0.3053562641143799,0.1676061451435089
1712834322695094800,3.5600947265625,-0.3251330256462097,0.491670161485672,0.00939205288887024
1712834322715094800,3.5800947265625,-0.42959097027778625,0.38354700803756714,-0.11155926436185837
1712834322735094800,3.6000947265625,-0.5065600275993347,0.04634939879179001,-0.2056325078010559
1712834322755094800,3.6200947265625,-0.4931209683418274,-0.49060115218162537,-0.2868776023387909
1712834322775094800,3.6400947265625,-0.42042800784111023,-1.0043388605117798,-0.40599632263183594
1712834322795094800,3.6600947265625,-0.3654501438140869,-1.2462414503097534,-0.5672647356987
1712834322815094800,3.6800947265625,-0.3605632185935974,-1.232802391052246,-0.6753878593444824
1712834322835094800,3.7000947265625,-0.3972151279449463,-1.2205851078033447,-0.6863834857940674
1712834322855094800,3.7200947265625,-0.5016731023788452,-1.3659710884094238,-0.7010442018508911
1712834322875095300,3.74009521484375,-0.6934847831726074,-1.5241851806640625,-0.6656140685081482
1712834322895095300,3.76009521484375,-0.8828529715538025,-1.6982817649841309,-0.5990297198295593
1712834322915095300,3.78009521484375,-1.1107057332992554,-1.8112918138504028,-0.5226715803146362
1712834322935095300,3.80009521484375,-1.4143058061599731,-1.7905223369598389,-0.4902957081794739
1712834322955095300,3.82009521484375,-1.744783878326416,-1.679344892501831,-0.5080108046531677
1712834322975094800,3.8400947265625,-2.018451452255249,-1.4582116603851318,-0.5599343776702881
1712834322995094800,3.8600947265625,-2.174222230911255,-1.1601094007492065,-0.654007613658905
1712834323015095000,3.880094970703125,-2.1815524101257324,-0.804585874080658,-0.7462482452392578
1712834323035095000,3.900094970703125,-2.1064159870147705,-0.48204904794692993,-0.8067238926887512
1712834323055095000,3.920094970703125,-2.015397071838379,-0.20715968310832977,-0.7590764164924622
1712834323075095000,3.940094970703125,-1.8431332111358643,0.23266330361366272,-0.6204100251197815
1712834323095095000,3.960094970703125,-1.5902349948883057,0.4263075888156891,-0.6161339282989502
1712834323115094800,3.9800947265625,-1.2389874458312988,0.9504299759864807,-0.5678756237030029
1712834323135094800,4.0000947265625,-0.9445503950119019,1.473941445350647,-0.43592870235443115
1712834323155094800,4.0200947265625,-0.7576256394386292,1.7017942667007446,-0.272827684879303
1712834323175094800,4.0400947265625,-0.5700899958610535,1.6181056499481201,-0.07307475805282593
1712834323195094800,4.0600947265625,-0.3599523603916168,1.2485321760177612,0.10590875893831253
1712834323215094800,4.0800947265625,-0.18096883594989777,0.6651558876037598,0.23296873271465302
1712834323235094800,4.1000947265625,-0.04596760869026184,0.10621419548988342,0.3099377453327179
1712834323255094800,4.1200947265625,0.013286318629980087,-0.2627484202384949,0.36247217655181885
1712834323275094800,4.1400947265625,-0.012980886735022068,-0.5565745830535889,0.3258202373981476
1712834323295094800,4.1600947265625,-0.25366178154945374,-0.9780716300010681,0.2677880525588989
1712834323315094800,4.1800947265625,-0.4784601926803589,-1.5596153736114502,0.3001639246940613
1712834323335094800,4.2000947265625,-0.5535966157913208,-1.9316322803497314,0.405843585729599
1712834323355094800,4.2200947265625,-0.7240280508995056,-2.4673609733581543,0.37774381041526794
1712834323375095000,4.240094970703125,-0.6910412907600403,-2.653064012527466,0.25068381428718567
1712834323395095000,4.260094970703125,-0.5480988621711731,-2.8161652088165283,0.21219931542873383
1712834323415095000,4.280094970703125,-0.3568980097770691,-2.549827814102173,0.3337614834308624
1712834323435095000,4.300094970703125,-0.24205535650253296,-1.879097819328308,0.44249552488327026
1712834323455095000,4.320094970703125,-0.1950187236070633,-1.1631637811660767,0.4657084047794342
1712834323475094800,4.3400947265625,-0.11194105446338654,-0.6268240809440613,0.46448665857315063
1712834323495094800,4.3600947265625,-0.009926560334861279,-0.28290697932243347,0.467540979385376
1712834323515095000,4.380094970703125,0.10735956579446793,-0.07032585889101028,0.487088680267334
1712834323535095000,4.400094970703125,0.2393064647912979,-0.0544433668255806,0.5261840224266052
1712834323555095000,4.420094970703125,0.4317290186882019,-0.32566753029823303,0.554894745349884
1712834323575095000,4.440094970703125,0.5624541640281677,-0.6897432208061218,0.5475643277168274
1712834323595095000,4.460094970703125,0.6327036619186401,-1.0489319562911987,0.5280166268348694
1712834323615094800,4.4800947265625,0.6663012504577637,-1.1869875192642212,0.4828126132488251
1712834323635094800,4.5000947265625,0.6577491760253906,-1.0611492395401,0.40217840671539307
1712834323655094800,4.5200947265625,0.5984952449798584,-0.8161923289299011,0.31665727496147156
1712834323675094800,4.5400947265625,0.4720461070537567,-0.5706244707107544,0.24274258315563202
1712834323695094800,4.5600947265625,0.33887749910354614,-0.3836997449398041,0.17921258509159088
1712834323715094800,4.5800947265625,0.19104810059070587,-0.2309834212064743,0.09980010986328125
1712834323735094800,4.6000947265625,0.03405573591589928,0.08544477820396423,0.012446379289031029
1712834323755094800,4.6200947265625,-0.15836681425571442,0.4409683346748352,-0.018096882849931717
1712834323775094800,4.6400947265625,-0.3196352422237396,0.7445683479309082,0.05581781268119812
1712834323795094800,4.6600947265625,-0.3269656300544739,0.9137780666351318,0.16577355563640594
1712834323815094800,4.6800947265625,-0.17608191072940826,0.7946593165397644,0.21708624064922333
1712834323835094800,4.7000947265625,-0.020311269909143448,0.31696268916130066,0.23235787451267242
1712834323855094800,4.7200947265625,-0.005650503560900688,-0.4325689375400543,0.2531272768974304
1712834323875095300,4.74009521484375,-0.09483683109283447,-1.2688435316085815,0.21464277803897858
1712834323895095300,4.76009521484375,-0.2041817009449005,-1.8681023120880127,0.08513934165239334
1712834323915095300,4.78009521484375,-0.32818734645843506,-2.072742223739624,-0.06879869848489761
1712834323935095300,4.80009521484375,-0.38377609848976135,-1.9352974891662598,-0.1500437706708908
1712834323955095300,4.82009521484375,-0.44364088773727417,-1.6390278339385986,-0.22395847737789154
1712834323975094800,4.8400947265625,-0.49067750573158264,-1.2963323593139648,-0.32414036989212036
1712834323995094800,4.8600947265625,-0.6317873597145081,-1.1613311767578125,-0.4982369542121887
1712834324015095300,4.88009521484375,-0.7405213713645935,-1.0800861120224,-0.47563496232032776
1712834324035095300,4.90009521484375,-0.774118959903717,-1.0110583305358887,-0.4029420018196106
1712834324055095300,4.92009521484375,-0.764955997467041,-0.8778896927833557,-0.2972623109817505
1712834324075095300,4.94009521484375,-0.7631233930587769,-0.8583420515060425,-0.21174116432666779
1712834324095095300,4.96009521484375,-0.70692378282547,-0.9615782499313354,-0.15309810638427734
1712834324115094800,4.9800947265625,-0.5682573914527893,-1.1332314014434814,-0.10606148093938828
1712834324135094800,5.0000947265625,-0.4069889783859253,-1.289612889289856,-0.04986187443137169
1712834324155094800,5.0200947265625,-0.2646573781967163,-1.3623058795928955,0.011224648915231228
1712834324175094800,5.0400947265625,-0.15653422474861145,-1.3787992000579834,0.07292203605175018
1712834324195094800,5.0600947265625,-0.078343465924263,-1.3616949319839478,0.12484558671712875
1712834324215094800,5.0800947265625,-0.055741455405950546,-1.2969433069229126,0.18043431639671326
1712834324235094800,5.1000947265625,-0.1033889427781105,-1.213254690170288,0.2439643144607544
1712834324255094800,5.1200947265625,-0.17547103762626648,-1.1564443111419678,0.3105486333370209
1712834324275094800,5.1400947265625,-0.20662516355514526,-1.137507438659668,0.4009566605091095
1712834324295094800,5.1600947265625,-0.1540907621383667,-1.1216249465942383,0.49991685152053833
1712834324315094800,5.1800947265625,-0.07895433157682419,-1.1509464979171753,0.5316818356513977
1712834324335094800,5.2000947265625,-0.050854530185461044,-1.2358567714691162,0.5084689855575562
1712834324355094800,5.2200947265625,-0.09056077152490616,-1.3488668203353882,0.4620431959629059
1712834324375095300,5.24009521484375,-0.09483683109283447,-1.4270576238632202,0.40706533193588257
1712834324395095300,5.26009521484375,-0.07712173461914062,-1.4832571744918823,0.3551417887210846
1712834324415095300,5.28009521484375,-0.09666942805051804,-1.488144040107727,0.32154420018196106
1712834324435095300,5.30009521484375,-0.1492038369178772,-1.4111751317977905,0.29772046208381653
1712834324455095300,5.32009521484375,-0.2151772826910019,-1.2847260236740112,0.2598468065261841
1712834324475094800,5.3400947265625,-0.3049744665622711,-1.140561819076538,0.22502748668193817
1712834324495094800,5.3600947265625,-0.45402559638023376,-0.9548587203025818,0.18715384602546692
1712834324515095300,5.38009521484375,-0.5493205785751343,-0.7746534943580627,0.12118039280176163
1712834324535095300,5.40009521484375,-0.594524621963501,-0.5529094338417053,0.0264962799847126
1712834324555095300,5.42009521484375,-0.6482807397842407,-0.2419789880514145,-0.024205535650253296
1712834324575095300,5.44009521484375,-0.6983717083930969,0.06956227868795395,-0.002825251780450344
1712834324595095300,5.46009521484375,-0.6464481353759766,0.1825723499059677,0.06436992436647415
1712834324615094800,5.4800947265625,-0.5163338780403137,0.027412578463554382,0.12423472106456757
1712834324635094800,5.5000947265625,-0.3758348524570465,-0.2719113826751709,0.1474476009607315
1712834324655094800,5.5200947265625,-0.24266621470451355,-0.5364160537719727,0.15538884699344635
1712834324675094800,5.5400947265625,-0.11499538272619247,-0.7086800336837769,0.16699528694152832
1712834324695094800,5.5600947265625,0.0065668015740811825,-0.8009206652641296,0.18532124161720276
1712834324715094800,5.5800947265625,0.11713340878486633,-0.8785005807876587,0.18104518949985504
1712834324735094800,5.6000947265625,0.18555031716823578,-0.9151524901390076,0.15722143650054932
1712834324755094800,5.6200947265625,0.19776763021945953,-0.8974373936653137,0.11934779584407806
1712834324775094800,5.6400947265625,0.15317445993423462,-0.8687267303466797,0.05398521572351456
1712834324795094800,5.6600947265625,0.03894266113638878,-0.8852201104164124,-0.038866300135850906
1712834324815094800,5.6800947265625,-0.15042556822299957,-0.9640217423439026,-0.12316570430994034
1712834324835094800,5.7000947265625,-0.33307427167892456,-1.0153343677520752,-0.1408807933330536
1712834324855094800,5.7200947265625,-0.44425174593925476,-1.0299952030181885,-0.12438743561506271
1712834324875095300,5.74009521484375,-0.4570799171924591,-0.910876452922821,-0.11339186131954193
1712834324895095300,5.76009521484375,-0.41370847821235657,-0.6805802583694458,-0.09689849615097046
1712834324915095300,5.78009521484375,-0.32268956303596497,-0.43012550473213196,-0.0694095641374588
1712834324935095300,5.80009521484375,-0.2047925740480423,-0.18944458663463593,-0.02603813074529171
1712834324955095300,5.82009521484375,-0.044135015457868576,0.03107776865363121,0.045433104038238525
1712834324975094800,5.8400947265625,0.11468994617462158,0.10499246418476105,0.10468703508377075
1712834324995094800,5.8600947265625,0.2808452844619751,0.1172097697854042,0.1633300930261612
1712834325015095300,5.88009521484375,0.41523563861846924,0.09521862119436264,0.21464277803897858
1712834325035095300,5.90009521484375,0.49037206172943115,-0.013515393249690533,0.23052527010440826
1712834325055095300,5.92009521484375,0.4732678532600403,-0.30001118779182434,0.2189188301563263
1712834325075095300,5.94009521484375,0.33948835730552673,-0.8351291418075562,0.21219931542873383
1712834325095095300,5.96009521484375,0.10552696883678436,-1.5522849559783936,0.21586450934410095
1712834325115094800,5.9800947265625,-0.15286903083324432,-2.237675666809082,0.2286926805973053
1712834325135094800,6.0000947265625,-0.33368512988090515,-2.7098746299743652,0.2341904640197754
1712834325155094800,6.0200947265625,-0.3904955983161926,-2.8302149772644043,0.2384665161371231
1712834325175094800,6.0400947265625,-0.3361285924911499,-2.6164121627807617,0.23968824744224548
1712834325195094800,6.0600947265625,-0.26832255721092224,-2.231567144393921,0.22686007618904114
1712834325215094800,6.0800947265625,-0.19074267148971558,-1.8986455202102661,0.2293035387992859
1712834325235094800,6.1000947265625,-0.15347988903522491,-1.7685312032699585,0.24579690396785736
1712834325255094800,6.1200947265625,-0.20112738013267517,-1.9621754884719849,0.2537381649017334
1712834325275094800,6.1400947265625,-0.22617286443710327,-2.4478135108947754,0.25740334391593933
1712834325295094800,6.1600947265625,-0.16264286637306213,-2.8955776691436768,0.2592359483242035
1712834325315094800,6.1800947265625,-0.13698652386665344,-3.0531809329986572,0.2244166135787964
1712834325335094800,6.2000947265625,-0.19257527589797974,-2.973768472671509,0.16210836172103882
1712834325355094800,6.2200947265625,-0.1498146951198578,-2.6267969608306885,0.10957395285367966
1712834325375095300,6.24009521484375,-0.1082758679986,-2.092289924621582,0.048487428575754166
1712834325395095300,6.26009521484375,-0.10705413669347763,-1.4386639595031738,-0.04253149405121803
1712834325415095300,6.28009521484375,-0.10522153973579407,-0.520533561706543,-0.16470454633235931
1712834325435095300,6.30009521484375,-0.08750644326210022,0.2338850349187851,-0.23251058161258698
1712834325455095300,6.32009521484375,-0.10155634582042694,0.9528734087944031,-0.301538348197937
1712834325475094800,6.3400947265625,-0.168751522898674,1.648648977279663,-0.3516293168067932
1712834325495094800,6.3600947265625,-0.230448916554451,2.2644011974334717,-0.373009592294693
1712834325515095300,6.38009521484375,-0.2200642079114914,2.7103326320648193,-0.3974441885948181
1712834325535095300,6.40009521484375,-0.18524488806724548,3.0823497772216797,-0.3571271002292633
1712834325555095300,6.42009521484375,-0.2243402600288391,3.1996357440948486,-0.2526691257953644
1712834325575095300,6.44009521484375,-0.29397889971733093,3.033480405807495,-0.11827878654003143
1712834325595095300,6.46009521484375,-0.230448916554451,2.542344808578491,0.002672535367310047
1712834325615094800,6.4800947265625,-0.1644754707813263,1.7219527959823608,0.08025242388248444
1712834325635094800,6.5000947265625,-0.1638645976781845,0.7366271018981934,0.12362385541200638
1712834325655094800,6.5200947265625,-0.15286903083324432,-0.1711186319589615,0.10835222154855728
1712834325675094800,6.5400947265625,-0.15042556822299957,-0.7789295315742493,0.019165897741913795
1712834325695094800,6.5600947265625,-0.23411411046981812,-1.0813078880310059,-0.09017898142337799
1712834325715094800,6.5800947265625,-0.3110831379890442,-1.1747702360153198,-0.16653713583946228
1712834325735094800,6.6000947265625,-0.3465133011341095,-1.127733588218689,-0.20502164959907532
1712834325755094800,6.6200947265625,-0.3617849349975586,-0.9817367792129517,-0.22029328346252441
1712834325775094800,6.6400947265625,-0.3507893681526184,-0.813748836517334,-0.19769126176834106
1712834325795094800,6.6600947265625,-0.3349068760871887,-0.6317110061645508,-0.13660474121570587
1712834325815094800,6.6800947265625,-0.3306308090686798,-0.4093560576438904,-0.0492510087788105
1712834325835094800,6.7000947265625,-0.29886582493782043,-0.16317738592624664,0.031383201479911804
1712834325855094800,6.7200947265625,-0.22067506611347198,0.03474296256899834,0.09002626687288284
1712834325875095300,6.74009521484375,-0.07467827945947647,0.14042264223098755,0.11934779584407806
1712834325895095300,6.76009521484375,0.13179416954517365,0.20639608800411224,0.11568260937929153
1712834325915095300,6.78009521484375,0.285121351480484,0.27114781737327576,0.0924697294831276
1712834325935095300,6.80009521484375,0.36819902062416077,0.26565003395080566,0.06742425262928009
1712834325955095300,6.82009521484375,0.35659259557724,0.12331841886043549,0.04726569727063179
1712834325975094800,6.8400947265625,0.27779096364974976,-0.11247556656599045,0.03504839166998863
1712834325995094800,6.8600947265625,0.20876319706439972,-0.33421963453292847,0.03260493278503418
1712834326015095300,6.88009521484375,0.19349156320095062,-0.5162574648857117,0.02344195358455181
1712834326035095300,6.90009521484375,0.17821992933750153,-0.6231589317321777,0.04787656292319298
1712834326055095300,6.92009521484375,0.11774427443742752,-0.55779629945755,0.09369145333766937
1712834326075095300,6.94009521484375,0.05910121276974678,-0.32505667209625244,0.12056952714920044
1712834326095095300,6.96009521484375,0.09697485715150833,-0.0190131813287735,0.10163270682096481
1712834326115094800,6.9800947265625,0.19104810059070587,0.28092166781425476,0.08758280426263809
1712834326135094800,7.0000947265625,0.25763240456581116,0.47395506501197815,0.08391761034727097
1712834326155094800,7.0200947265625,0.2393064647912979,0.5460371971130371,0.07170030474662781
1712834326175094800,7.0400947265625,0.15622878074645996,0.420198917388916,0.06559165567159653
1712834326195094800,7.0600947265625,0.04505131021142006,0.137979194521904,0.04970915988087654
1712834326215094800,7.0800947265625,-0.07162395119667053,-0.10392344743013382,0.017333300784230232
1712834326235094800,7.1000947265625,-0.15714508295059204,-0.1851685345172882,-0.010766499675810337
1712834326255094800,7.1200947265625,-0.2194533348083496,-0.06910412758588791,-0.0290924571454525
1712834326275094800,7.1400947265625,-0.26893341541290283,0.19662225246429443,-0.027870727702975273
1712834326295094800,7.1600947265625,-0.29275718331336975,0.4318053722381592,-0.02054034359753132
1712834326315094800,7.1800947265625,-0.3269656300544739,0.5619196891784668,-0.015653422102332115
1712834326335094800,7.2000947265625,-0.3605632185935974,0.6022367477416992,0.0069485921412706375
1712834326355094800,7.2200947265625,-0.30802878737449646,0.4812854528427124,0.04115704447031021
1712834326375095300,7.24009521484375,-0.1944078654050827,0.38354700803756714,0.048487428575754166
1712834326395095300,7.26009521484375,-0.09483683109283447,0.40248385071754456,0.07047858089208603
1712834326415095300,7.28009521484375,-0.03375030308961868,0.5222133994102478,0.132786825299263
1712834326435095300,7.30009521484375,0.017562376335263252,0.5894085764884949,0.22014056146144867
1712834326455095300,7.32009521484375,0.08903361111879349,0.533819854259491,0.3099377453327179
1712834326475094800,7.3400947265625,0.17821992933750153,0.3560580909252167,0.36247217655181885
1712834326495094800,7.3600947265625,0.2600758671760559,0.03413209691643715,0.3594178259372711
1712834326515095300,7.38009521484375,0.28206703066825867,-0.397138774394989,0.32215505838394165
1712834326535095300,7.40009521484375,0.21181751787662506,-0.8583420515060425,0.27756190299987793
1712834326555095300,7.42009521484375,0.06887505948543549,-1.2590696811676025,0.21097758412361145
1712834326575095300,7.44009521484375,-0.09239336848258972,-1.5150221586227417,0.11018481850624084
1712834326595095300,7.46009521484375,-0.2347249686717987,-1.595045566558838,-0.005268712528049946
1712834326615094800,7.4800947265625,-0.33368512988090515,-1.5394567251205444,-0.10300715267658234
1712834326635094800,7.5000947265625,-0.3715587854385376,-1.441718339920044,-0.16165021061897278
1712834326655094800,7.5200947265625,-0.3562871515750885,-1.3262648582458496,-0.14454598724842072
1712834326675094800,7.5400947265625,-0.1736384481191635,-1.1979831457138062,-0.06330090761184692
1712834326695094800,7.5600947265625,0.04199698567390442,-0.9609673619270325,-0.027870727702975273
1712834326715094800,7.5800947265625,0.24113905429840088,-0.662254273891449,-0.06391177326440811
1712834326735094800,7.6000947265625,0.3706424832344055,-0.4435645341873169,-0.0797942727804184
1712834326755094800,7.6200947265625,0.38957929611206055,-0.3830888569355011,-0.0541379339993
1712834326775094800,7.6400947265625,0.3724750876426697,-0.4282929003238678,-0.027870727702975273
1712834326795094800,7.6600947265625,0.36880987882614136,-0.4692208766937256,-0.04008803144097328
1712834326815094800,7.6800947265625,0.40424007177352905,-0.3268892765045166,-0.08101600408554077
1712834326835094800,7.7000947265625,0.4512766897678375,-0.03306308016180992,-0.10300715267658234
1712834326855094800,7.7200947265625,0.4616613984107971,0.29313895106315613,-0.10911580175161362
1712834326875095300,7.74009521484375,0.4537201523780823,0.5942955017089844,-0.09262244403362274
1712834326895095300,7.76009521484375,0.4885394871234894,0.8343655467033386,-0.08284860104322433
1712834326915095300,7.78009521484375,0.5600107312202454,1.0011317729949951,-0.08651378750801086
1712834326935095300,7.80009521484375,0.6101016402244568,1.0756573677062988,-0.08895725011825562
1712834326955095300,7.82009521484375,0.660803496837616,1.104367971420288,-0.07857254147529602
1712834326975094800,7.8400947265625,0.7212791442871094,0.9870818853378296,-0.10300715267658234
1712834326995094800,7.8600947265625,0.7591527700424194,0.7488444447517395,-0.11888964474201202
1712834327015095300,7.88009521484375,0.7072292566299438,0.4654029607772827,-0.12072224169969559
1712834327035095300,7.90009521484375,0.6210972666740417,0.24304801225662231,-0.11278099566698074
1712834327055095300,7.92009521484375,0.6241515874862671,0.1428661048412323,-0.09567677229642868
1712834327075095300,7.94009521484375,0.5936083197593689,0.0921642929315567,-0.13232868909835815
1712834327095095300,7.96009521484375,0.4622722864151001,0.038408152759075165,-0.15309810638427734
1712834327115094800,7.9800947265625,0.266184538602829,0.007254024967551231,-0.1408807933330536
1712834327135094800,8.0000947265625,0.02367102913558483,-0.0214566420763731,-0.09689849615097046
1712834327155094800,8.0200947265625,-0.2096794992685318,-0.12774719297885895,-0.030925052240490913
1712834327175094800,8.0400947265625,-0.33429601788520813,-0.28473955392837524,0.060704734176397324
1712834327195094800,8.0600947265625,-0.33796119689941406,-0.6598108410835266,0.1272890418767929
1712834327215094800,8.0800947265625,-0.3452915847301483,-1.2260829210281372,0.15050192177295685
1712834327235094800,8.1000947265625,-0.44547349214553833,-1.8180112838745117,0.18165604770183563
1712834327255094800,8.1200947265625,-0.6067419052124023,-2.4288766384124756,0.2079232633113861
1712834327275094800,8.1400947265625,-0.7728972434997559,-3.094719648361206,0.19631682336330414
1712834327295094800,8.1600947265625,-0.9592111706733704,-3.794771194458008,0.11873693019151688
1712834327315094800,8.1800947265625,-1.080162525177002,-3.993302583694458,0.022220224142074585
1712834327335094800,8.2000947265625,-1.2371548414230347,-3.8247036933898926,-0.06269004940986633
1712834327355094800,8.2200947265625,-1.4106405973434448,-3.4227542877197266,-0.19708040356636047
1712834327375095300,8.24009521484375,-1.6226108074188232,-2.8644235134124756,-0.34002286195755005
1712834327395095300,8.26009521484375,-1.7014124393463135,-2.11183762550354,-0.45547640323638916
1712834327415095300,8.28009521484375,-1.6433802843093872,-1.25051748752594,-0.5190063714981079
1712834327435095300,8.30009521484375,-1.599397897720337,-0.29878947138786316,-0.5220606923103333
1712834327455095300,8.32009521484375,-1.524261474609375,0.6346126198768616,-0.4469242990016937
1712834327475094800,8.3400947265625,-1.362382173538208,1.1984412670135498,-0.3333033621311188
1712834327495094800,8.3600947265625,-1.1870639324188232,1.2485321760177612,-0.20807597041130066
1712834327515095300,8.38009521484375,-1.0630582571029663,0.8722392320632935,-0.059635721147060394
1712834327535095300,8.40009521484375,-0.9158397316932678,0.2943606972694397,0.01794416643679142
1712834327555095300,8.42009521484375,-0.7026477456092834,-0.21754439175128937,0.06925684958696365
1712834327575095300,8.44009521484375,-0.5151121020317078,-0.49732068181037903,0.1278999149799347
1712834327595095300,8.46009521484375,-0.413097620010376,-0.5498550534248352,0.1981494128704071
1712834327615094800,8.4800947265625,-0.3507893681526184,-0.5022075772285461,0.26351198554039
1712834327635094800,8.5000947265625,-0.23228150606155396,-0.3818671405315399,0.3300963044166565
1712834327655094800,8.5200947265625,-0.07040221989154816,-0.15706872940063477,0.4302782118320465
1712834327675094800,8.5400947265625,0.04566217586398125,0.03962988406419754,0.5194645524024963
1712834327695094800,8.5600947265625,0.18860463798046112,0.1428661048412323,0.5909357666969299
1712834327715094800,8.5800947265625,0.3523165285587311,0.1837940812110901,0.6336963176727295
1712834327735094800,8.6000947265625,0.4824308156967163,0.137979194521904,0.6734025478363037
1712834327755094800,8.6200947265625,0.4781547784805298,-0.14301882684230804,0.6898959279060364
1712834327775094800,8.6400947265625,0.3669773042201996,-0.439288467168808,0.647746205329895
1712834327795094800,8.6600947265625,0.25702154636383057,-0.6970735788345337,0.5518403649330139
1712834327815094800,8.6800947265625,0.15561792254447937,-0.9200394153594971,0.46387580037117004
1712834327835094800,8.7000947265625,0.02367102913558483,-1.0483211278915405,0.41867175698280334
1712834327855094800,8.7200947265625,-0.14553864300251007,-1.0251082181930542,0.3942371606826782
1712834327875095300,8.74009521484375,-0.24816401302814484,-0.9432523250579834,0.3807981312274933
1712834327895095300,8.76009521484375,-0.2292271852493286,-1.02327561378479,0.36308303475379944
1712834327915095300,8.78009521484375,-0.1333213448524475,-1.2138656377792358,0.30199649930000305
1712834327935095300,8.80009521484375,-0.004428773187100887,-1.3158800601959229,0.23480132222175598
1712834327955095300,8.82009521484375,0.1342376321554184,-1.3305408954620361,0.21464277803897858
1712834327975094800,8.8400947265625,0.29733866453170776,-1.3299299478530884,0.23541219532489777
1712834327995094800,8.8600947265625,0.5068654417991638,-1.42094886302948,0.2531272768974304
1712834328015095300,8.88009521484375,0.7267768979072571,-1.5315154790878296,0.27206411957740784
1712834328035095300,8.90009521484375,0.8672759532928467,-1.4930310249328613,0.2677880525588989
1712834328055095300,8.92009521484375,0.9228646755218506,-1.3702471256256104,0.24640776216983795
1712834328075095300,8.94009521484375,0.9582948684692383,-1.234024167060852,0.21281017363071442
1712834328095095300,8.96009521484375,0.9369145631790161,-1.0923033952713013,0.1419498175382614
1712834328115094800,8.9800947265625,0.8440630435943604,-0.9438631534576416,0.08147415518760681
1712834328135094800,9.0000947265625,0.6907358765602112,-0.8051967620849609,0.06864598393440247
1712834328155094800,9.0200947265625,0.52702397108078,-0.681801974773407,0.022220224142074585
1712834328175094800,9.0400947265625,0.37369680404663086,-0.5345834493637085,-0.03703370690345764
1712834328195094800,9.0600947265625,0.24236078560352325,-0.37026068568229675,-0.08895725011825562
1712834328215094800,9.0800947265625,0.08903361111879349,-0.23525947332382202,-0.14637859165668488
1712834328235094800,9.1000947265625,-0.010537425056099892,-0.16806429624557495,-0.18180876970291138
1712834328255094800,9.1200947265625,-0.1082758679986,-0.1100321039557457,-0.2471713423728943
1712834328275094800,9.1400947265625,-0.2102903574705124,-0.0996473953127861,-0.30214923620224
1712834328295094800,9.1600947265625,-0.24388794600963593,-0.0190131813287735,-0.2813797891139984
1712834328315094800,9.1800947265625,-0.25854870676994324,0.208839550614357,-0.2508365511894226
1712834328335094800,9.2000947265625,-0.2817615866661072,0.46784642338752747,-0.2673299014568329
1712834328355094800,9.2200947265625,-0.3404046595096588,0.6285039782524109,-0.24839307367801666
1712834328375095300,9.24009521484375,-0.4265366494655609,0.5973498225212097,-0.1610393524169922
1712834328395095300,9.26009521484375,-0.5346598029136658,0.20212003588676453,-0.06085744872689247
1712834328415095300,9.28009521484375,-0.6696610450744629,-0.49732068181037903,0.005726861767470837
1712834328435095300,9.30009521484375,-0.8009970784187317,-1.3152692317962646,0.05337435007095337
1712834328455095300,9.32009521484375,-0.8859072923660278,-1.9762253761291504,0.08086328953504562
1712834328475094800,9.3400947265625,-0.8956811428070068,-2.4001657962799072,0.060093868523836136
1712834328495094800,9.3600947265625,-0.8352054953575134,-2.610914468765259,0.033826664090156555
1712834328515095300,9.38009521484375,-0.7325801253318787,-2.6402359008789062,0.011835514567792416
1712834328535095300,9.40009521484375,-0.6269004344940186,-2.5486061573028564,-0.015653422102332115
1712834328555095300,9.42009521484375,-0.5279402732849121,-2.3506858348846436,-0.04864014685153961
1712834328575095300,9.44009521484375,-0.44913867115974426,-2.0819051265716553,-0.0846811980009079
1712834328595095300,9.46009521484375,-0.3978259861469269,-1.8106809854507446,-0.12805262207984924
1712834328615094800,9.4800947265625,-0.3880521357059479,-1.5809955596923828,-0.1702023297548294
1712834328635094800,9.5000947265625,-0.422871470451355,-1.4075099229812622,-0.19830213487148285
1712834328655094800,9.5200947265625,-0.48456886410713196,-1.2578479051589966,-0.20990857481956482
1712834328675094800,9.5400947265625,-0.5352706909179688,-1.108185887336731,-0.21846067905426025
1712834328695094800,9.5600947265625,-0.5517640113830566,-0.9047678112983704,-0.23923009634017944
1712834328715094800,9.5800947265625,-0.5737552046775818,-0.7434993386268616,-0.2569451928138733
1712834328735094800,9.6000947265625,-0.6287330389022827,-0.6390414237976074,-0.25450173020362854
1712834328755094800,9.6200947265625,-0.6885978579521179,-0.6304892897605896,-0.23984096944332123
1712834328775094800,9.6400947265625,-0.6928738951683044,-0.6286566853523254,-0.19830213487148285
1712834328795094800,9.6600947265625,-0.6336199641227722,-0.5406920909881592,-0.11217013001441956
1712834328815094800,9.6800947265625,-0.6397286057472229,-0.2957351505756378,0.033826664090156555
1712834328835094800,9.7000947265625,-0.6244570016860962,0.13859005272388458,0.18593211472034454
1712834328855094800,9.7200947265625,-0.3923282027244568,0.6590472459793091,0.3093268871307373
1712834328875095300,9.74009521484375,-0.030695978552103043,1.0652726888656616,0.38812851905822754
1712834328895095300,9.76009521484375,0.3016147017478943,1.3255012035369873,0.4400520622730255
1712834328915095300,9.78009521484375,0.5050328373908997,1.3725378513336182,0.4705953001976013
1712834328935095300,9.80009521484375,0.5899431109428406,0.8850674033164978,0.4699844419956207
1712834328955095300,9.82009521484375,0.5154175758361816,-0.020234910771250725,0.37346774339675903
1712834328975094800,9.8400947265625,0.3095559775829315,-0.9774607419967651,0.25618159770965576
1712834328995094800,9.8600947265625,0.08659014850854874,-1.7141642570495605,0.17004960775375366
1712834329015095300,9.88009521484375,-0.13759739696979523,-2.0831267833709717,0.14072808623313904
1712834329035095300,9.90009521484375,-0.2964223623275757,-2.064800977706909,0.12484558671712875
1712834329055095300,9.92009521484375,-0.3263547718524933,-1.811902642250061,0.08452847599983215
1712834329075095300,9.94009521484375,-0.3068070709705353,-1.44294011592865,0.04115704447031021
1712834329095095300,9.96009521484375,-0.30253100395202637,-1.1075750589370728,0.036880988627672195
1712834329115094800,9.9800947265625,-0.29886582493782043,-0.9169850945472717,0.06436992436647415
1712834329135094800,10.0000947265625,-0.2554943859577179,-0.891939640045166,0.08575020730495453
1712834329155094800,10.0200947265625,-0.20601430535316467,-1.0397690534591675,0.08636107295751572
1712834329175094800,10.0400947265625,-0.1644754707813263,-1.1882092952728271,0.08025242388248444
1712834329195094800,10.0600947265625,-0.08139779418706894,-1.2468522787094116,0.06559165567159653
1712834329215094800,10.0800947265625,-0.011759156361222267,-1.2083678245544434,0.05032002553343773
1712834329235094800,10.1000947265625,0.04382958263158798,-1.12101411819458,0.05337435007095337
1712834329255094800,10.1200947265625,0.0529925599694252,-1.0336604118347168,0.06742425262928009
1712834329275094800,10.1400947265625,0.015118914656341076,-0.966465175151825,0.07536549866199493
1712834329295094800,10.1600947265625,-0.030085112899541855,-0.9273697733879089,0.082085020840168
1712834329315094800,10.1800947265625,-0.06918048858642578,-0.9066003561019897,0.10041097551584244
1712834329335094800,10.2000947265625,-0.06673702597618103,-0.8754462599754333,0.13095423579216003
1712834329355094800,10.2200947265625,-0.050243668258190155,-0.8088619709014893,0.17188221216201782
1712834329375095300,10.24009521484375,-0.038637228310108185,-0.7153995633125305,0.1987602859735489
1712834329395095300,10.26009521484375,-0.013591751456260681,-0.6311001777648926,0.21708624064922333
1712834329415095300,10.28009521484375,-0.0025961773935705423,-0.5999460220336914,0.23480132222175598
1712834329435095300,10.30009521484375,-0.058184914290905,-0.6054438352584839,0.23663392663002014
1712834329455095300,10.32009521484375,-0.15531249344348907,-0.6097198724746704,0.21708624064922333
1712834329475094800,10.3400947265625,-0.25671613216400146,-0.5907830595970154,0.20181460678577423
1712834329495094800,10.3600947265625,-0.33429601788520813,-0.549244225025177,0.1938733607530594
1712834329515095300,10.38009521484375,-0.3764457106590271,-0.49121201038360596,0.2030363380908966
1712834329535095300,10.40009521484375,-0.41920626163482666,-0.3665955066680908,0.2238057553768158
1712834329555095300,10.42009521484375,-0.4363104999065399,-0.18394680321216583,0.24029912054538727
1712834329575095300,10.44009521484375,-0.35811975598335266,-0.08926268666982651,0.2482403665781021
1712834329595095300,10.46009521484375,-0.2646573781967163,-0.11247556656599045,0.23113614320755005
1712834329615094800,10.4800947265625,-0.16508632898330688,-0.24320071935653687,0.20975585281848907
1712834329635094800,10.5000947265625,-0.12721268832683563,-0.3989713490009308,0.2183079719543457
1712834329655094800,10.5200947265625,-0.12660181522369385,-0.5840635299682617,0.22686007618904114
1712834329675094800,10.5400947265625,-0.14614951610565186,-0.7715991735458374,0.22624921798706055
1712834329695094800,10.5600947265625,-0.1498146951198578,-0.9206503033638,0.22197316586971283
1712834329714924800,10.5799248046875,-0.12660181522369385,-0.9799042344093323,0.21952970325946808
1712834329734924800,10.5999248046875,-0.07773260027170181,-0.9224829077720642,0.20242546498775482
1712834329754924800,10.6199248046875,-0.04963280260562897,-0.8015315532684326,0.16027577221393585
1712834329774924800,10.6399248046875,-0.059406645596027374,-0.7050148248672485,0.10102184116840363
1712834329794924800,10.6599248046875,-0.11071932315826416,-0.6549239158630371,0.05337435007095337
1712834329814924800,10.6799248046875,-0.1992947906255722,-0.6579782366752625,0.0020616701804101467
1712834329834924800,10.6999248046875,-0.2964223623275757,-0.6799693703651428,-0.04864014685153961
1712834329854924800,10.7199248046875,-0.3862195611000061,-0.7172321677207947,-0.09201157838106155
1712834329874925000,10.739925048828125,-0.45402559638023376,-0.7642687559127808,-0.10911580175161362
1712834329894925000,10.759925048828125,-0.46929723024368286,-0.8106945157051086,-0.09323330968618393
1712834329914925000,10.779925048828124,-0.4173736870288849,-0.7917577028274536,-0.060246583074331284
1712834329934925000,10.799925048828126,-0.30925053358078003,-0.7080692052841187,-0.038866300135850906
1712834329954925000,10.819925048828125,-0.16752979159355164,-0.5571854710578918,-0.0290924571454525
1712834329974924800,10.8399248046875,-0.04535674303770065,-0.42707115411758423,-0.026648996397852898
1712834329994924800,10.8599248046875,0.03222314268350601,-0.4087451994419098,-0.026648996397852898
1712834330014925000,10.879925048828126,0.054825156927108765,-0.4881576895713806,-0.02054034359753132
1712834330034925000,10.899925048828125,0.04444044828414917,-0.5968917012214661,-0.026648996397852898
1712834330054925000,10.919925048828125,0.019394971430301666,-0.6653085947036743,-0.0290924571454525
1712834330074925000,10.939925048828124,-0.0013744467869400978,-0.6695846915245056,-0.021151209250092506
1712834330094925000,10.959925048828126,-0.018478672951459885,-0.5962808132171631,-0.006490443367511034
1712834330114924800,10.9799248046875,-0.02275473065674305,-0.5309182405471802,-0.005268712528049946
1712834330134924800,10.9999248046875,-0.023976460099220276,-0.4997641146183014,-0.011988230049610138
1712834330154924800,11.0199248046875,-0.01114829070866108,-0.4887685477733612,-0.016264287754893303
1712834330174924800,11.0399248046875,0.0010690141934901476,-0.4734969139099121,-0.014431691728532314
1712834330194924800,11.0599248046875,0.012675453908741474,-0.458836168050766,-0.008933904580771923
1712834330214924800,11.0799248046875,0.04138612002134323,-0.4234059751033783,-0.0022143865935504436
1712834330234924800,11.0999248046875,0.07376197725534439,-0.3568216562271118,-0.005268712528049946
1712834330254924800,11.1199248046875,0.10247264802455902,-0.2908482253551483,-0.025427265092730522
1712834330274924800,11.1399248046875,0.10674870014190674,-0.23403774201869965,-0.04130976274609566
1712834330294924800,11.1599248046875,0.1036943718791008,-0.20715968310832977,-0.051083605736494064
1712834330314924800,11.1799248046875,0.11835514008998871,-0.206548810005188,-0.0694095641374588
1712834330334924800,11.1999248046875,0.16050484776496887,-0.19310978055000305,-0.10545061528682709
1712834330354924800,11.2199248046875,0.23380866646766663,-0.10392344743013382,-0.14698944985866547
1712834330374925000,11.239925048828125,0.20631973445415497,0.03474296256899834,-0.1659262776374817
1712834330394925000,11.259925048828125,0.12507465481758118,0.21555908024311066,-0.16775886714458466
1712834330414925000,11.279925048828124,0.11774427443742752,0.40309470891952515,-0.16287194192409515
1712834330434925000,11.299925048828126,0.10735956579446793,0.5545892715454102,-0.14698944985866547
1712834330454925000,11.319925048828125,0.1598939746618271,0.6346126198768616,-0.11217013001441956
1712834330474924800,11.3399248046875,0.27840182185173035,0.6877579092979431,-0.048029281198978424
1712834330494924800,11.3599248046875,0.4335615932941437,0.7714464664459229,0.017333300784230232
1712834330514925000,11.379925048828126,0.5679519772529602,0.8917868733406067,0.05642867833375931
1712834330534925000,11.399925048828125,0.6033821702003479,0.8533023595809937,0.04604396969079971
1712834330554925000,11.419925048828125,0.44089198112487793,0.40248385071754456,0.01488984003663063
1712834330574925000,11.439925048828124,0.19654589891433716,-0.16745343804359436,-0.0071013085544109344
1712834330594925000,11.459925048828126,-0.01970040425658226,-0.6585890650749207,-0.021762074902653694
1712834330614924800,11.4799248046875,-0.20845776796340942,-0.8894961476325989,-0.041920628398656845
1712834330634924800,11.4999248046875,-0.3446807265281677,-0.843681275844574,-0.0749073475599289
1712834330654924800,11.5199248046875,-0.44974952936172485,-0.6274349689483643,-0.07307475805282593
1712834330674924800,11.5399248046875,-0.49067750573158264,-0.3665955066680908,-0.041920628398656845
1712834330694924800,11.5599248046875,-0.4534147381782532,-0.10331258177757263,-0.0034361169673502445
1712834330714924800,11.5799248046875,-0.38011088967323303,0.13187053799629211,0.011835514567792416
1712834330734924800,11.5999248046875,-0.2860376536846161,0.3132975101470947,0.03871358558535576
1712834330754924800,11.6199248046875,-0.17730364203453064,0.36827537417411804,0.08880453556776047
1712834330774924800,11.6399248046875,-0.06062837690114975,0.29191723465919495,0.11446087807416916
1712834330794924800,11.6599248046875,0.040164388716220856,0.1581377387046814,0.1175151988863945
1712834330814924800,11.6799248046875,0.0933096632361412,0.021303925663232803,0.11873693019151688
1712834330834924800,11.6999248046875,0.10613783448934555,-0.12102767825126648,0.1077413558959961
1712834330854924800,11.7199248046875,0.08475755155086517,-0.28962647914886475,0.08819366991519928
1712834330874925000,11.739925048828125,0.024892758578062057,-0.449062317609787,0.072311170399189
1712834330894925000,11.759925048828125,-0.033139441162347794,-0.5626832246780396,0.07353290170431137
1712834330914925000,11.779925048828124,-0.039248090237379074,-0.5907830595970154,0.08086328953504562
1712834330934925000,11.799925048828126,-0.04657847434282303,-0.5529094338417053,0.09063713252544403
1712834330954925000,11.819925048828125,-0.05696318298578262,-0.4789946973323822,0.09491318464279175
1712834330974924800,11.8399248046875,-0.04657847434282303,-0.4124104082584381,0.09552405029535294
1712834330994924800,11.8599248046875,-0.008704829961061478,-0.38492146134376526,0.09918924421072006
1712834331014925000,11.879925048828126,0.004734205547720194,-0.37942367792129517,0.09918924421072006
1712834331034925000,11.899925048828125,0.005345070734620094,-0.3885866403579712,0.09369145333766937
1712834331054925000,11.919925048828125,-0.005650503560900688,-0.4142429828643799,0.0973566472530365
1712834331074925000,11.939925048828124,-0.03375030308961868,-0.4282929003238678,0.1071304902434349
1712834331094925000,11.959925048828126,-0.08628471940755844,-0.43134722113609314,0.1126282811164856
1712834331114924800,11.9799248046875,-0.15164729952812195,-0.4130212664604187,0.11629346758127213
1712834331134924800,11.9999248046875,-0.2145664244890213,-0.3989713490009308,0.12179125845432281
1712834331154924800,12.0199248046875,-0.26343563199043274,-0.39591702818870544,0.13034337759017944
1712834331174924800,12.0399248046875,-0.3196352422237396,-0.40630173683166504,0.14378240704536438
1712834331194924800,12.0599248046875,-0.36850446462631226,-0.3965279161930084,0.15172365307807922
1712834331214924800,12.0799248046875,-0.4277583956718445,-0.33483052253723145,0.15905404090881348
1712834331234924800,12.0999248046875,-0.4827362596988678,-0.2627484202384949,0.15966489911079407
1712834331254924800,12.1199248046875,-0.47601673007011414,-0.26946792006492615,0.1688278764486313
1712834331274924800,12.1399248046875,-0.43386703729629517,-0.3464369475841522,0.17004960775375366
1712834331294924800,12.1599248046875,-0.37827831506729126,-0.44661885499954224,0.1688278764486313
1712834331314924800,12.1799248046875,-0.33368512988090515,-0.5895613431930542,0.18898643553256989
1712834331334924800,12.1999248046875,-0.30863967537879944,-0.8326857089996338,0.22991441190242767
1712834331354924800,12.2199248046875,-0.29886582493782043,-1.2102004289627075,0.2855031490325928
1712834331374925000,12.239925048828125,-0.2909245789051056,-1.6200909614562988,0.3081051707267761
1712834331394925000,12.259925048828125,-0.3361285924911499,-1.9859992265701294,0.26351198554039
1712834331414925000,12.279925048828124,-0.45036038756370544,-2.365957498550415,0.1676061451435089
1712834331434925000,12.299925048828126,-0.5303837656974792,-2.7336983680725098,0.11507174372673035
1712834331454925000,12.319925048828125,-0.5774203538894653,-2.9401707649230957,0.08575020730495453
1712834331474924800,12.3399248046875,-0.6110179424285889,-2.9010753631591797,-0.01992947794497013
1712834331494773000,12.35977294921875,-0.6269004344940186,-2.4227678775787354,-0.17386752367019653
1712834331514773200,12.379773193359375,-0.584139883518219,-1.6958383321762085,-0.2862667143344879
1712834331534773200,12.399773193359374,-0.4735732674598694,-0.7899250984191895,-0.34918585419654846
1712834331554773200,12.419773193359376,-0.3465133011341095,0.2039526402950287,-0.27832546830177307
1712834331574773200,12.439773193359375,-0.18096883594989777,1.1746175289154053,-0.1750892549753189
1712834331594773200,12.459773193359375,0.02122756652534008,1.9870682954788208,-0.10850493609905243
1712834331614773000,12.47977294921875,0.22770002484321594,2.521575450897217,-0.05291620269417763
1712834331634773000,12.49977294921875,0.37919458746910095,2.7439303398132324,0.005115996580570936
1712834331654773000,12.51977294921875,0.4775438904762268,2.597322702407837,0.05093089118599892
1712834331674773000,12.53977294921875,0.44944411516189575,2.0713677406311035,0.10102184116840363
1712834331694773000,12.55977294921875,0.3407101035118103,1.2027173042297363,0.1370628923177719
1712834331714773000,12.57977294921875,0.19104810059070587,0.21433734893798828,0.15416711568832397
1712834331734773000,12.59977294921875,0.06459899991750717,-0.5755113959312439,0.13645201921463013
1712834331754773000,12.61977294921875,0.004734205547720194,-1.0306060314178467,0.09124799817800522
1712834331774773000,12.63977294921875,-0.006872233934700489,-1.158276915550232,0.051541756838560104
1712834331794773000,12.65977294921875,0.016951510682702065,-1.052597165107727,0.025885414332151413
1712834331814773000,12.67977294921875,0.08475755155086517,-0.872391939163208,-0.0009926559869199991
1712834331834773000,12.69977294921875,0.16661348938941956,-0.7239516973495483,-0.03520110994577408
1712834331854773000,12.71977294921875,0.2295326143503189,-0.5718462467193604,-0.04558581858873367
1712834331874773200,12.739773193359374,0.26679539680480957,-0.38003453612327576,-0.03153591975569725
1712834331894773200,12.759773193359376,0.2857322096824646,-0.2315942794084549,-0.03459024429321289
1712834331914773200,12.779773193359375,0.3303253948688507,-0.09109527617692947,-0.030314188450574875
1712834331934773200,12.799773193359375,0.3975205719470978,0.0817795842885971,-0.03214678168296814
1712834331954773200,12.819773193359374,0.39324450492858887,0.22105686366558075,-0.06085744872689247
1712834331974773000,12.83977294921875,0.3620903789997101,0.30291280150413513,-0.06146831437945366
1712834331994773000,12.85977294921875,0.39874228835105896,0.4403574764728546,-0.06635523587465286
1712834332014773200,12.879773193359375,0.39813143014907837,0.6291148662567139,-0.10850493609905243
1712834332034773200,12.899773193359374,0.26190847158432007,0.8264243006706238,-0.14149166643619537
1712834332054773200,12.919773193359376,0.20082195103168488,0.9229410290718079,-0.15431983768939972
1712834332074773200,12.939773193359375,0.2704605758190155,0.9620364308357239,-0.16226108372211456
1712834332094773200,12.959773193359375,0.3663664162158966,0.9870818853378296,-0.18486309051513672
1712834332114773000,12.97977294921875,0.4335615932941437,1.000520944595337,-0.19280433654785156
1712834332134773000,12.99977294921875,0.43967026472091675,0.8105418086051941,-0.18975001573562622
1712834332154773000,13.01977294921875,0.39324450492858887,0.37132972478866577,-0.19952386617660522
1712834332174773000,13.03977294921875,0.31810808181762695,-0.0849866271018982,-0.23861923813819885
1712834332194773000,13.05977294921875,0.1837177276611328,-0.31467196345329285,-0.27527114748954773
1712834332214773000,13.07977294921875,0.04260785132646561,-0.3073415756225586,-0.2716059684753418
1712834332234773000,13.09977294921875,-0.06001751124858856,-0.1955532431602478,-0.2526691257953644
1712834332254773000,13.11977294921875,-0.1137736514210701,-0.022678371518850327,-0.2257910668849945
1712834332274773000,13.13977294921875,-0.1443169116973877,0.23571762442588806,-0.1909717470407486
1712834332294773000,13.15977294921875,-0.12599095702171326,0.5216025710105896,-0.1500437706708908
1712834332314773000,13.17977294921875,-0.08261952549219131,0.6883687973022461,-0.11888964474201202
1712834332334773000,13.19977294921875,-0.02519819140434265,0.6743188500404358,-0.07796167582273483
1712834332354773000,13.21977294921875,0.04199698567390442,0.5313764214515686,-0.027870727702975273
1712834332374773200,13.239773193359374,0.0933096632361412,0.37743836641311646,0.024663684889674187
1712834332394773200,13.259773193359376,0.13973543047904968,0.24488060176372528,0.08330674469470978
1712834332414773200,13.279773193359375,0.14340060949325562,0.06956227868795395,0.12484558671712875
1712834332434773200,13.299773193359375,0.1036943718791008,-0.23770293593406677,0.12118039280176163
1712834332454773200,13.319773193359374,0.052381694316864014,-0.45578181743621826,0.11812606453895569
1712834332474773000,13.33977294921875,0.012064588256180286,-0.5241987109184265,0.16027577221393585
1712834332494773000,13.35977294921875,-0.00015271631127689034,-0.46616652607917786,0.18898643553256989
1712834332514773200,13.379773193359375,-0.008704829961061478,-0.40630173683166504,0.17737999558448792
1712834332534773200,13.399773193359374,0.012064588256180286,-0.3183371424674988,0.18226692080497742
1712834332554773200,13.419773193359376,0.02672535367310047,-0.22243130207061768,0.21708624064922333
1712834332574773200,13.439773193359375,0.010231993161141872,-0.18150334060192108,0.24518603086471558
1712834332594773200,13.459773193359375,-0.09300423413515091,-0.2413681298494339,0.25129470229148865
1712834332614773000,13.47977294921875,-0.2554943859577179,-0.37942367792129517,0.23480132222175598
1712834332634773000,13.49977294921875,-0.4216497242450714,-0.510148823261261,0.2079232633113861
1712834332654773000,13.51977294921875,-0.5535966157913208,-0.5461899042129517,0.18959729373455048
1712834332674773000,13.53977294921875,-0.6409503817558289,-0.4728860557079315,0.19081902503967285
1712834332694773000,13.55977294921875,-0.6611089110374451,-0.31955888867378235,0.20547980070114136
1712834332714773000,13.57977294921875,-0.6794348955154419,-0.1295797973871231,0.2244166135787964
1712834332734773000,13.59977294921875,-0.6702718734741211,0.032910365611314774,0.24701863527297974
1712834332754773000,13.61977294921875,-0.6000223755836487,0.06284276396036148,0.2629011273384094
1712834332774773000,13.63977294921875,-0.483957976102829,-0.06666067242622375,0.28183794021606445
1712834332794773000,13.65977294921875,-0.36300668120384216,-0.3030655086040497,0.29710957407951355
1712834332814773000,13.67977294921875,-0.251218318939209,-0.5064836740493774,0.3044399619102478
1712834332834773000,13.69977294921875,-0.16752979159355164,-0.6543130278587341,0.31238120794296265
1712834332854773000,13.71977294921875,-0.11133018881082535,-0.7434993386268616,0.31299206614494324
1712834332874773200,13.739773193359374,-0.06734789162874222,-0.7874816656112671,0.29588785767555237
1712834332894773200,13.759773193359376,-0.019089538604021072,-0.7416667938232422,0.26595544815063477
1712834332914773200,13.779773193359375,-0.009926560334861279,-0.642706573009491,0.22991441190242767
1712834332934773200,13.799773193359375,-0.05146539583802223,-0.529085636138916,0.1627192348241806
1712834332954773200,13.819773193359374,-0.1498146951198578,-0.47166433930397034,0.07780896127223969
1712834332974773000,13.83977294921875,-0.2860376536846161,-0.4576144218444824,0.016111571341753006
1712834332994773000,13.85977294921875,-0.4277583956718445,-0.4246276915073395,-0.018096882849931717
1712834333014773200,13.879773193359375,-0.5474879741668701,-0.36537376046180725,-0.033368512988090515
1712834333034773200,13.899773193359374,-0.6348416805267334,-0.2725222706794739,-0.04069889709353447
1712834333054773200,13.919773193359376,-0.6916521787643433,-0.1711186319589615,-0.03520110994577408
1712834333074773200,13.939773193359375,-0.6659958362579346,-0.08804095536470413,-0.005879578180611134
1712834333094773200,13.959773193359375,-0.5670356750488281,0.004810563754290342,0.030161472037434578
1712834333114773000,13.97977294921875,-0.4210388660430908,0.10438159853219986,0.025885414332151413
1712834333134773000,13.99977294921875,-0.27259862422943115,0.14347697794437408,0.00939205288887024
1712834333154773000,14.01977294921875,-0.17180584371089935,0.09033169597387314,-0.009544769302010536
1712834333174773000,14.03977294921875,-0.12965615093708038,-0.06666067242622375,-0.04680754989385605
1712834333194773000,14.05977294921875,-0.12538009881973267,-0.23281601071357727,-0.09323330968618393
1712834333214773000,14.07977294921875,-0.13515393435955048,-0.35926511883735657,-0.1347721517086029
1712834333234773000,14.09977294921875,-0.1235474944114685,-0.4374558627605438,-0.13782647252082825
1712834333254773000,14.11977294921875,-0.08200865983963013,-0.4539492428302765,-0.09689849615097046
1712834333274773000,14.13977294921875,-0.005039638374000788,-0.3470478057861328,-0.038866300135850906
1712834333294773000,14.15977294921875,0.08781187981367111,-0.1198059469461441,0.02344195358455181
1712834333314773000,14.17977294921875,0.19898934662342072,0.12026409804821014,0.09796751290559769
1712834333334773000,14.19977294921875,0.33460143208503723,0.24732406437397003,0.1682170182466507
1712834333354773000,14.21977294921875,0.45005497336387634,0.23510676622390747,0.2494620978832245
1712834333374773200,14.239773193359374,0.45921793580055237,0.055512379854917526,0.29100093245506287
1712834333394773200,14.259773193359376,0.41890084743499756,-0.246865913271904,0.31299206614494324
1712834333414773200,14.279773193359375,0.3449861407279968,-0.6011677384376526,0.3398701548576355
1712834333434773200,14.299773193359375,0.28756481409072876,-0.9401979446411133,0.3710242807865143
1712834333454773200,14.319773193359374,0.31322115659713745,-1.205924391746521,0.38751763105392456
1712834333474773000,14.33977294921875,0.36819902062416077,-1.3390929698944092,0.3746894598007202
1712834333494773000,14.35977294921875,0.4024074673652649,-1.353753685951233,0.3563635051250458
1712834333514773200,14.379773193359375,0.39324450492858887,-1.317712664604187,0.3551417887210846
1712834333534773200,14.399773193359374,0.3455969989299774,-1.2963323593139648,0.3563635051250458
1712834333554773200,14.419773193359376,0.2704605758190155,-1.3213778734207153,0.33742669224739075
1712834333574773200,14.439773193359375,0.1794416606426239,-1.3934600353240967,0.29100093245506287
1712834333594773200,14.459773193359375,0.07925976812839508,-1.461266040802002,0.23052527010440826
1712834333614773000,14.47977294921875,-0.019089538604021072,-1.4966962337493896,0.16516269743442535
1712834333634773000,14.49977294921875,-0.10644327104091644,-1.500361442565918,0.09552405029535294
1712834333654773000,14.51977294921875,-0.20051652193069458,-1.433777093887329,0.01488984003663063
1712834333674773000,14.53977294921875,-0.2750420868396759,-1.3012193441390991,-0.08223773539066315
1712834333694773000,14.55977294921875,-0.31841349601745605,-1.1167380809783936,-0.180587038397789
1712834333714773000,14.57977294921875,-0.3501785099506378,-0.882165789604187,-0.2771037518978119
1712834333734773000,14.59977294921875,-0.3776674270629883,-0.6231589317321777,-0.3669009506702423
1712834333754773000,14.61977294921875,-0.4173736870288849,-0.367817223072052,-0.44509169459342957
1712834333774773000,14.63977294921875,-0.47540587186813354,-0.10270171612501144,-0.5031238794326782
1712834333794773000,14.65977294921875,-0.5242751240730286,0.15202908217906952,-0.5452736020088196
1712834333814773000,14.67977294921875,-0.5499314665794373,0.3407864570617676,-0.5813146233558655
1712834333834773000,14.69977294921875,-0.5523748993873596,0.5032765865325928,-0.6002514362335205
1712834333854773000,14.71977294921875,-0.5407684445381165,0.6333909034729004,-0.5874232649803162
1712834333874773200,14.739773193359374,-0.5004513263702393,0.7647269368171692,-0.5544365644454956
1712834333894773200,14.759773193359376,-0.42348232865333557,0.8502480387687683,-0.5061782002449036
1712834333914773200,14.779773193359375,-0.3245221674442291,0.8899543285369873,-0.4334852397441864
1712834333934773200,14.799773193359375,-0.2145664244890213,0.9101128578186035,-0.3418554663658142
1712834333954773200,14.819773193359374,-0.11071932315826416,0.9174432158470154,-0.24350616335868835
1712834333974773000,14.83977294921875,-0.020311269909143448,0.8704066276550293,-0.13660474121570587
1712834333994773000,14.85977294921875,0.03222314268350601,0.7280750274658203,-0.018707748502492905
1712834334014773200,14.879773193359375,0.0328340083360672,0.48922669887542725,0.1071304902434349
1712834334034773200,14.899773193359374,-0.023976460099220276,0.16119205951690674,0.2238057553768158
1712834334054773200,14.919773193359376,-0.09789115190505981,-0.2413681298494339,0.3142138123512268
1712834334074773200,14.939773193359375,-0.17058411240577698,-0.6940192580223083,0.3850741684436798
1712834334094773200,14.959773193359375,-0.22861631214618683,-1.1026880741119385,0.44371724128723145
1712834334114773000,14.97977294921875,-0.23900102078914642,-1.414229393005371,0.49502992630004883
1712834334134773000,14.99977294921875,-0.2200642079114914,-1.6182583570480347,0.5139667391777039
1712834334154773000,15.01977294921875,-0.22739458084106445,-1.7666985988616943,0.5121341347694397
1712834334174773000,15.03977294921875,-0.28909197449684143,-1.9157497882843018,0.5182427763938904
1712834334194773000,15.05977294921875,-0.3868304193019867,-2.095344066619873,0.5432882905006409
1712834334214773000,15.07977294921875,-0.44974952936172485,-2.248671293258667,0.5701663494110107
1712834334234773000,15.09977294921875,-0.44974952936172485,-2.235232353210449,0.5897140502929688
1712834334254773000,15.11977294921875,-0.40515637397766113,-2.0489184856414795,0.5970444083213806
1712834334274773000,15.13977294921875,-0.32818734645843506,-1.7972419261932373,0.6049856543540955
1712834334294773000,15.15977294921875,-0.2451096773147583,-1.6591863632202148,0.6165921092033386
1712834334314773000,15.17977294921875,-0.2096794992685318,-1.719662070274353,0.6031530499458313
1712834334334773000,15.19977294921875,-0.1950187236070633,-1.8070157766342163,0.5432882905006409
1712834334354773000,15.21977294921875,-0.2096794992685318,-1.7618117332458496,0.44432809948921204
1712834334374773200,15.239773193359374,-0.2249511331319809,-1.5638914108276367,0.26351198554039
1712834334394773200,15.259773193359376,-0.1999056488275528,-1.1967613697052002,0.02955060638487339
1712834334414773200,15.279773193359375,-0.17180584371089935,-0.7508297562599182,-0.16470454633235931
1712834334434773200,15.299773193359375,-0.15103642642498016,-0.35987597703933716,-0.2514474093914032
1712834334454773200,15.319773193359374,-0.1235474944114685,-0.13141238689422607,-0.2654972970485687
1712834334474773000,15.33977294921875,-0.07895433157682419,-0.11125383526086807,-0.2856558561325073
1712834334494773000,15.35977294921875,-0.03375030308961868,-0.22915083169937134,-0.321086049079895
1712834334514773200,15.379773193359375,-0.0007635815418325365,-0.40630173683166504,-0.3278055489063263
1712834334534773200,15.399773193359374,0.019394971430301666,-0.6133850812911987,-0.292375385761261
1712834334554773200,15.419773193359376,0.04444044828414917,-0.7715991735458374,-0.23373231291770935
1712834334574773200,15.439773193359375,0.09514226019382477,-0.7923685908317566,-0.16409367322921753
1712834334594773200,15.459773193359375,0.1598939746618271,-0.6390414237976074,-0.0895681157708168
1712834334614773000,15.47977294921875,0.19532416760921478,-0.36903896927833557,-0.021151209250092506
1712834334634773000,15.49977294921875,0.1238529309630394,-0.11308643221855164,0.04421137273311615
1712834334654773000,15.51977294921875,-0.07773260027170181,-0.08132143318653107,0.11201741546392441
1712834334674773000,15.53977294921875,-0.2664899528026581,-0.3384957015514374,0.20181460678577423
1712834334694773000,15.55977294921875,-0.4014911949634552,-0.6359871029853821,0.3087160289287567
1712834334714773000,15.57977294921875,-0.451582133769989,-0.7667122483253479,0.37346774339675903
1712834334734773000,15.59977294921875,-0.36483925580978394,-0.6591999530792236,0.4040110111236572
1712834334754773000,15.61977294921875,-0.15164729952812195,-0.3360522389411926,0.415617436170578
1712834334774773000,15.63977294921875,-0.012980886735022068,-0.08743008971214294,0.3795763850212097
1712834334794773000,15.65977294921875,0.048716504126787186,0.0921642929315567,0.26351198554039
1712834334814773000,15.67977294921875,0.05115996301174164,0.1837940812110901,0.09002626687288284
1712834334834773000,15.69977294921875,0.013897184282541275,0.23266330361366272,-0.0742964819073677
1712834334854773000,15.71977294921875,0.001679879380390048,0.19723311066627502,-0.1799761801958084
1712834334874773200,15.739773193359374,0.012675453908741474,0.07444920390844345,-0.21296289563179016
1712834334894773200,15.759773193359376,0.031001411378383636,-0.09109527617692947,-0.17081318795681
1712834334914773200,15.779773193359375,0.0731511116027832,-0.3372739851474762,-0.09750936180353165
1712834334934773200,15.799773193359375,0.10735956579446793,-0.6133850812911987,-0.0492510087788105
1712834334954773200,15.819773193359374,0.11713340878486633,-0.7996989488601685,-0.015653422102332115
1712834334974773000,15.83977294921875,0.09208793938159943,-0.8296313881874084,-0.011988230049610138
1712834334994773000,15.85977294921875,0.03894266113638878,-0.7227299213409424,-0.030925052240490913
1712834335014773200,15.879773193359375,-0.0025961773935705423,-0.5187009572982788,-0.05597052723169327
1712834335034773200,15.899773193359374,-0.0019853119738399982,-0.28718301653862,-0.06879869848489761
1712834335054773200,15.919773193359376,-0.005039638374000788,-0.06849326193332672,-0.0944550409913063
1712834335074773200,15.939773193359375,-0.026419922709465027,0.13003793358802795,-0.1097266674041748
1712834335094773200,15.959773193359375,-0.012980886735022068,0.25587618350982666,-0.11644618958234787
1712834335114773000,15.97977294921875,0.016340645030140877,0.24610233306884766,-0.10117455571889877
1712834335134773000,15.99977294921875,0.02733621932566166,0.12026409804821014,-0.0797942727804184
1712834335154773000,16.01977294921875,0.05421429127454758,-0.02695442922413349,-0.05780312418937683
1712834335174773000,16.03977294921875,0.07009678333997726,-0.052610769867897034,-0.059635721147060394
1712834335194773000,16.05977294921875,0.05604688450694084,0.1074359267950058,-0.08101600408554077
1712834335214773000,16.07977294921875,0.06398813426494598,0.4000403881072998,-0.11766792088747025
1712834335234773000,16.09977294921875,0.10980302840471268,0.7555639743804932,-0.1702023297548294
1712834335254773000,16.11977294921875,0.16050484776496887,0.9162214994430542,-0.1799761801958084
1712834335274773000,16.13977294921875,0.21792617440223694,0.9229410290718079,-0.1555415689945221
1712834335294773000,16.15977294921875,0.2961169183254242,0.7799985408782959,-0.10667234659194946
1712834335314773000,16.17977294921875,0.3816380500793457,0.4971679449081421,-0.0492510087788105
1712834335334773000,16.19977294921875,0.4219551682472229,0.16974417865276337,0.005115996580570936
1712834335354773000,16.21977294921875,0.4005748927593231,-0.10758864134550095,0.054596081376075745
1712834335374773200,16.239773193359376,0.3572034537792206,-0.27496573328971863,0.09980010986328125
1712834335394773200,16.259773193359376,0.29856038093566895,-0.3177262842655182,0.13400855660438538
1712834335414773200,16.279773193359375,0.2503020465373993,-0.2462550550699234,0.15599970519542694
1712834335434773200,16.299773193359375,0.21792617440223694,-0.13874277472496033,0.15599970519542694
1712834335454773200,16.319773193359374,0.18005253374576569,-0.040393464267253876,0.15599970519542694
1712834335474773000,16.33977294921875,0.12446379661560059,0.0029779679607599974,0.16394096612930298
1712834335494773000,16.35977294921875,0.07498370856046677,0.005421428941190243,0.1676061451435089
1712834335514773200,16.379773193359377,0.0328340083360672,-0.012293662875890732,0.15416711568832397
1712834335534773200,16.399773193359376,-0.018478672951459885,-0.004352414980530739,0.12484558671712875
1712834335554773200,16.419773193359376,-0.06123924255371094,0.06223189830780029,0.08086328953504562
1712834335574773200,16.439773193359375,-0.10766500234603882,0.19051359593868256,0.0264962799847126
1712834335594773200,16.459773193359375,-0.16630806028842926,0.31818443536758423,-0.011377365328371525
1712834335614773000,16.47977294921875,-0.20357084274291992,0.37743836641311646,-0.0290924571454525
1712834335634773000,16.49977294921875,-0.19746218621730804,0.3334560692310333,-0.024205535650253296
1712834335654773000,16.51977294921875,-0.15225815773010254,0.20089830458164215,0.00939205288887024
1712834335674773000,16.53977294921875,-0.10094548016786575,0.03718642145395279,0.06314819306135178
1712834335694773000,16.55977294921875,-0.06185010448098183,-0.15890131890773773,0.1676061451435089
1712834335714773000,16.57977294921875,-0.04230241850018501,-0.27863091230392456,0.25068381428718567
1712834335734773000,16.59977294921875,-0.030695978552103043,-0.3714824318885803,0.30566170811653137
1712834335754773000,16.61977294921875,-0.02519819140434265,-0.4380667507648468,0.3337614834308624
1712834335774773000,16.63977294921875,-0.026419922709465027,-0.4686099886894226,0.3600287139415741
1712834335794773000,16.65977294921875,-0.013591751456260681,-0.4594470262527466,0.37285688519477844
1712834335814773000,16.67977294921875,0.007177666760981083,-0.4325689375400543,0.36858081817626953
1712834335834773000,16.69977294921875,0.03588833287358284,-0.4124104082584381,0.344757080078125
1712834335854773000,16.71977294921875,0.04260785132646561,-0.4386776089668274,0.30566170811653137
1712834335874773200,16.739773193359376,0.004734205547720194,-0.5382486581802368,0.2549598813056946
1712834335894773200,16.759773193359376,-0.06918048858642578,-0.7135669589042664,0.19448421895503998
1712834335914773200,16.779773193359375,-0.16203200817108154,-0.9041569232940674,0.1272890418767929
1712834335934773200,16.799773193359375,-0.2451096773147583,-1.0177778005599976,0.06131559982895851
1712834335954773200,16.819773193359374,-0.3061962127685547,-1.0153343677520752,0.002672535367310047
1712834335974773000,16.83977294921875,-0.3306308090686798,-0.9182068109512329,-0.04986187443137169
1712834335994773000,16.85977294921875,-0.31352660059928894,-0.7459428310394287,-0.08101600408554077
1712834336014773200,16.879773193359377,-0.2658790946006775,-0.5278639197349548,-0.0846811980009079
1712834336034773200,16.899773193359376,-0.18646661937236786,-0.30367639660835266,-0.07918340712785721
1712834336054773200,16.919773193359376,-0.08567385375499725,-0.11736248433589935,-0.07124216109514236
1712834336074773200,16.939773193359375,0.019394971430301666,-0.007406740915030241,-0.051083605736494064
1712834336094773200,16.959773193359375,0.1036943718791008,0.009086620062589645,-0.027870727702975273
1712834336114773000,16.97977294921875,0.1598939746618271,-0.05749769136309624,-0.004657847341150045
1712834336134773000,16.99977294921875,0.18860463798046112,-0.15951219201087952,0.016722436994314194
1712834336154773000,17.01977294921875,0.17638733983039856,-0.2920699417591095,0.0264962799847126
1712834336174773000,17.03977294921875,0.1391245573759079,-0.4081343412399292,0.036880988627672195
1712834336194773000,17.05977294921875,0.08597928285598755,-0.5718462467193604,0.06375905871391296
1712834336214773000,17.07977294921875,0.048105638474226,-0.7825947403907776,0.10651962459087372
1712834336234773000,17.09977294921875,0.010842857882380486,-1.0214430093765259,0.15722143650054932
1712834336254773000,17.11977294921875,-0.018478672951459885,-1.2688435316085815,0.19631682336330414
1712834336274773000,17.13977294921875,-0.0429132841527462,-1.4838680028915405,0.21952970325946808
1712834336294773000,17.15977294921875,-0.05451972410082817,-1.6488016843795776,0.23663392663002014
1712834336314773000,17.17977294921875,-0.04841107130050659,-1.7300467491149902,0.24457517266273499
1712834336334773000,17.19977294921875,-0.03985895588994026,-1.7129424810409546,0.2280818074941635
1712834336354773000,17.21977294921875,-0.00931569468230009,-1.6084845066070557,0.18532124161720276
1712834336374773200,17.239773193359376,0.023060163483023643,-1.4673746824264526,0.13523028790950775
1712834336394773200,17.259773193359376,0.04444044828414917,-1.317712664604187,0.08513934165239334
1712834336414773200,17.279773193359375,0.0377209298312664,-1.1857657432556152,0.03627012297511101
1712834336434773200,17.299773193359375,0.022449297830462456,-1.0684796571731567,-0.010766499675810337
1712834336454773200,17.319773193359374,0.013897184282541275,-0.976239025592804,-0.06696610152721405
1712834336474773000,17.33977294921875,-0.0007635815418325365,-0.9090438485145569,-0.12805262207984924
1712834336494773000,17.35977294921875,-0.03191770985722542,-0.8583420515060425,-0.1860848218202591
1712834336514773200,17.379773193359377,-0.06979135423898697,-0.8021424412727356,-0.2355649173259735
1712834336534773200,17.399773193359376,-0.0887281745672226,-0.7355580925941467,-0.2819906771183014
1712834336554773200,17.419773193359376,-0.098502017557621,-0.6671411991119385,-0.32963815331459045
1712834336574773200,17.439773193359375,-0.13454307615756989,-0.6256023645401001,-0.3638466000556946
1712834336594773200,17.459773193359375,-0.19318613409996033,-0.6298784017562866,-0.3791182339191437
1712834336614773000,17.47977294921875,-0.25305092334747314,-0.6665303111076355,-0.3931681513786316
1712834336634773000,17.49977294921875,-0.3061962127685547,-0.7074583172798157,-0.3980550765991211
1712834336654773000,17.51977294921875,-0.3605632185935974,-0.6885215044021606,-0.36629006266593933
1712834336674773000,17.53977294921875,-0.39354994893074036,-0.6311001777648926,-0.3168099820613861
1712834336694773000,17.55977294921875,-0.3715587854385376,-0.558407187461853,-0.2624429762363434
1712834336714773000,17.57977294921875,-0.33368512988090515,-0.47655123472213745,-0.2215150147676468
1712834336734773000,17.59977294921875,-0.2848159074783325,-0.3983604907989502,-0.1653154045343399
1712834336754773000,17.61977294921875,-0.26221391558647156,-0.40996694564819336,-0.08162686973810196
1712834336774773000,17.63977294921875,-0.23777928948402405,-0.5162574648857117,-0.0022143865935504436
1712834336794773000,17.65977294921875,-0.1589776873588562,-0.6573673486709595,0.06375905871391296
1712834336814773000,17.67977294921875,-0.09239336848258972,-0.824744462966919,0.10957395285367966
1712834336834773000,17.69977294921875,-0.08200865983963013,-0.9676868915557861,0.132786825299263
1712834336854773000,17.71977294921875,-0.1394299864768982,-1.1002446413040161,0.1370628923177719
1712834336874773200,17.739773193359376,-0.23777928948402405,-1.1906527280807495,0.11079568415880203
1712834336894773200,17.759773193359376,-0.3208569586277008,-1.2187525033950806,0.06559165567159653
1712834336914773200,17.779773193359375,-0.3623957931995392,-1.1509464979171753,0.031383201479911804
1712834336934773200,17.799773193359375,-0.3355177342891693,-0.9640217423439026,0.007559457328170538
1712834336954773200,17.819773193359374,-0.3043636083602905,-0.7263951301574707,-0.03153591975569725
1712834336974773000,17.83977294921875,-0.27748554944992065,-0.4936554729938507,-0.060246583074331284
1712834336994773000,17.85977294921875,-0.260992169380188,-0.33544138073921204,-0.05474879592657089
1712834337014773200,17.879773193359377,-0.28420504927635193,-0.2981785833835602,-0.04008803144097328
1712834337034773200,17.899773193359376,-0.3397938013076782,-0.3372739851474762,-0.0290924571454525
1712834337054773200,17.919773193359376,-0.3660610020160675,-0.4124104082584381,-0.0034361169673502445
1712834337074773200,17.939773193359375,-0.34834590554237366,-0.45089492201805115,0.04360050708055496
1712834337094773200,17.959773193359375,-0.28359419107437134,-0.4227951169013977,0.07903069257736206
1712834337114773000,17.97977294921875,-0.18707747757434845,-0.36476290225982666,0.09124799817800522
1712834337134773000,17.99977294921875,-0.08506298810243607,-0.30978503823280334,0.082085020840168
1712834337154773000,18.01977294921875,-0.020922135561704636,-0.2822960913181305,0.05948300287127495
1712834337174773000,18.03977294921875,-0.005650503560900688,-0.3061198592185974,0.03199406713247299
1712834337194773000,18.05977294921875,-0.027641652151942253,-0.36415204405784607,0.01488984003663063
1712834337214773000,18.07977294921875,-0.07467827945947647,-0.45028403401374817,-0.013820826075971127
1712834337234773000,18.09977294921875,-0.11988230794668198,-0.539470374584198,-0.038866300135850906
1712834337254773000,18.11977294921875,-0.1437060534954071,-0.6078872680664062,-0.04069889709353447
1712834337274773000,18.13977294921875,-0.12599095702171326,-0.6390414237976074,-0.027870727702975273
1712834337294773000,18.15977294921875,-0.08445212244987488,-0.5926156640052795,-0.005268712528049946
1712834337314773000,18.17977294921875,-0.030695978552103043,-0.49670979380607605,0.016111571341753006
1712834337334773000,18.19977294921875,0.03222314268350601,-0.3989713490009308,0.028939740732312202
1712834337354773000,18.21977294921875,0.07376197725534439,-0.30978503823280334,0.048487428575754166
1712834337374773200,18.239773193359376,0.10186178237199783,-0.24869851768016815,0.07414376735687256
1712834337394773200,18.259773193359376,0.13301590085029602,-0.22304217517375946,0.09613491594791412
1712834337414773200,18.279773193359375,0.16111570596694946,-0.21937698125839233,0.12484558671712875
1712834337434773200,18.299773193359375,0.14645494520664215,-0.24320071935653687,0.1529453843832016
1712834337454773200,18.319773193359374,0.09514226019382477,-0.296956866979599,0.1731039434671402
1712834337474773000,18.33977294921875,0.0328340083360672,-0.36903896927833557,0.1932624876499176
1712834337494773000,18.35977294921875,-0.04841107130050659,-0.4221842288970947,0.20120373368263245
1712834337514773200,18.379773193359377,-0.12660181522369385,-0.4185190498828888,0.20181460678577423
1712834337534773200,18.399773193359376,-0.19562959671020508,-0.30978503823280334,0.20425806939601898
1712834337554773200,18.419773193359376,-0.2658790946006775,-0.14424055814743042,0.21158844232559204
1712834337574773200,18.439773193359375,-0.30314189195632935,0.13675746321678162,0.23113614320755005
1712834337594773200,18.459773193359375,-0.29397889971733093,0.3438407778739929,0.25679248571395874
1712834337614773000,18.47977294921875,-0.2750420868396759,0.5112178325653076,0.2751184403896332
1712834337634773000,18.49977294921875,-0.2915354371070862,0.6291148662567139,0.2781727612018585
1712834337654773000,18.51977294921875,-0.3660610020160675,0.640110433101654,0.2433534413576126
1712834337674773000,18.53977294921875,-0.4564690589904785,0.6175084114074707,0.21219931542873383
1712834337694773000,18.55977294921875,-0.5426010489463806,0.5167156457901001,0.19081902503967285
1712834337714773000,18.57977294921875,-0.5401576161384583,0.41286855936050415,0.1779908537864685
1712834337734773000,18.59977294921875,-0.4729624092578888,0.3352886736392975,0.16577355563640594
1712834337754773000,18.61977294921875,-0.38927388191223145,0.3249039649963379,0.16394096612930298
1712834337774773000,18.63977294921875,-0.3043636083602905,0.3407864570617676,0.17554740607738495
1712834337794773000,18.65977294921875,-0.20845776796340942,0.31635183095932007,0.17737999558448792
1712834337814773000,18.67977294921875,-0.12171489745378494,0.2442697435617447,0.16149750351905823
1712834337834773000,18.69977294921875,-0.05513058975338936,0.1330922693014145,0.11323914676904678
1712834337854773000,18.71977294921875,-0.038637228310108185,-0.031230485066771507,0.033826664090156555
1712834337874773200,18.739773193359376,-0.09666942805051804,-0.24014639854431152,-0.05047274008393288
1712834337894773200,18.759773193359376,-0.1944078654050827,-0.46189048886299133,-0.10789407044649124
1712834337914773200,18.779773193359375,-0.3055853247642517,-0.6420957446098328,-0.1249983012676239
1712834337934773200,18.799773193359375,-0.4112650156021118,-0.7312820553779602,-0.1249983012676239
1712834337954773200,18.819773193359374,-0.47907108068466187,-0.6469826698303223,-0.11217013001441956
1712834337974773000,18.83977294921875,-0.461355984210968,-0.45578181743621826,-0.10545061528682709
1712834337994773000,18.85977294921875,-0.3312416672706604,-0.21998783946037292,-0.10056369006633759
1712834338014773200,18.879773193359377,-0.15286903083324432,0.02802344225347042,-0.0895681157708168
1712834338034773200,18.899773193359376,0.05604688450694084,0.3407864570617676,-0.06757696717977524
1712834338054773200,18.919773193359376,0.18188512325286865,0.5289329290390015,-0.04558581858873367
1712834338074773200,18.939773193359375,0.26190847158432007,0.5967389941215515,-0.02848159149289131
1712834338094773200,18.959773193359375,0.31383201479911804,0.5411502718925476,-0.024816401302814484
1712834338114773000,18.97977294921875,0.31810808181762695,0.3847687542438507,-0.024816401302814484
1712834338134773000,18.99977294921875,0.2710714638233185,0.23693935573101044,-0.010155634954571724
1712834338154773000,19.01977294921875,0.2393064647912979,0.16180293262004852,0.008170322515070438
1712834338174773000,19.03977294921875,0.24663683772087097,0.16119205951690674,0.01366810966283083
1712834338194773000,19.05977294921875,0.2551889419555664,0.12026409804821014,0.014278975315392017
1712834338214773000,19.07977294921875,0.21609358489513397,-0.01412625890225172,0.022831087931990623
1712834338234773000,19.09977294921875,0.1788308024406433,-0.22304217517375946,0.03627012297511101
1712834338254773000,19.11977294921875,0.17577648162841797,-0.3769802153110504,0.04787656292319298
1712834338274773000,19.13977294921875,0.22281309962272644,-0.4240168333053589,0.052152618765830994
1712834338294773000,19.15977294921875,0.3003929853439331,-0.3812562823295593,0.05581781268119812
1712834338314773000,19.17977294921875,0.39385536313056946,-0.33055445551872253,0.0619264654815197
1712834338334773000,19.19977294921875,0.4781547784805298,-0.34093916416168213,0.054596081376075745
1712834338354773000,19.21977294921875,0.508087158203125,-0.41974079608917236,0.039935316890478134
1712834338374773200,19.239773193359376,0.5044219493865967,-0.4948772192001343,0.018555032089352608
1712834338394773200,19.259773193359376,0.4763221740722656,-0.5119814276695251,-0.026648996397852898
1712834338414773200,19.279773193359375,0.42867469787597656,-0.449062317609787,-0.08651378750801086
1712834338434773200,19.299773193359375,0.36392298340797424,-0.3024546504020691,-0.15370896458625793
1712834338454773200,19.319773193359374,0.30344730615615845,-0.14240795373916626,-0.23189972341060638
1712834338474773000,19.33977294921875,0.24602597951889038,0.004810563754290342,-0.2905427813529968
1712834338494773000,19.35977294921875,0.17272214591503143,0.10560332983732224,-0.3418554663658142
1712834338514773200,19.379773193359377,0.11957687139511108,0.08788824081420898,-0.3717878460884094
1712834338534773200,19.399773193359376,0.052381694316864014,0.006643159314990044,-0.3772856593132019
1712834338554773200,19.419773193359376,-0.021532999351620674,-0.08620835840702057,-0.3516293168067932
1712834338574773200,19.439773193359375,-0.05451972410082817,-0.1198059469461441,-0.3155882656574249
1712834338594740200,19.459740234375,-0.0685696229338646,-0.05994115397334099,-0.2679407596588135
1712834338614706400,19.47970654296875,-0.08628471940755844,0.04268420860171318,-0.18180876970291138
1712834338634673200,19.499673095703123,-0.06001751124858856,0.07078400999307632,-0.0742964819073677
1712834338654639900,19.519639892578127,-0.01114829070866108,0.004199698567390442,0.021609358489513397
1712834338674606600,19.539606689453127,0.03405573591589928,-0.206548810005188,0.09063713252544403
1712834338694573000,19.559572998046875,0.01878410577774048,-0.5791766047477722,0.1431715488433838
1712834338714539800,19.579539794921875,-0.04963280260562897,-1.088638186454773,0.16394096612930298
1712834338734506800,19.5995068359375,-0.14126259088516235,-1.6066519021987915,0.1480584591627121
1712834338754473500,19.619473388671874,-0.25793784856796265,-2.022040367126465,0.0771980956196785
1712834338774440200,19.639440185546874,-0.3666718602180481,-2.095344066619873,0.01794416643679142
1712834338794406700,19.65940673828125,-0.45463645458221436,-1.877265214920044,-0.024816401302814484
1712834338814373400,19.679373291015626,-0.43447789549827576,-1.4771485328674316,-0.09017898142337799
1712834338834340000,19.699340087890626,-0.42042800784111023,-1.0568732023239136,-0.17325665056705475
1712834338854306800,19.719306884765626,-0.48456886410713196,-0.7239516973495483,-0.22456933557987213
1712834338874273500,19.7392734375,-0.5487096905708313,-0.46616652607917786,-0.24472789466381073
1712834338894240000,19.759239990234374,-0.5364924073219299,-0.29512426257133484,-0.25328001379966736
1712834338914206700,19.779206787109374,-0.4882340431213379,-0.16439910233020782,-0.2361757755279541
1712834338934173400,19.79917333984375,-0.4082106947898865,0.02557998150587082,-0.1964695304632187
1712834338954140200,19.81914013671875,-0.2756529450416565,0.25037840008735657,-0.15859588980674744
1712834338974106400,19.8391064453125,-0.15347988903522491,0.4617377817630768,-0.12194397300481796
1712834338994073000,19.859072998046877,-0.05696318298578262,0.6144540905952454,-0.0645226389169693
1712834339014039800,19.879039794921876,0.012064588256180286,0.6700428128242493,0.0032834007870405912
1712834339034006500,19.899006591796876,0.06276640295982361,0.6553820371627808,0.07475463300943375
1712834339053973000,19.918972900390624,0.0988074541091919,0.5991824269294739,0.13523028790950775
1712834339073940200,19.938940185546876,0.13790282607078552,0.5484806299209595,0.15538884699344635
1712834339093907200,19.9589072265625,0.17027868330478668,0.5277112126350403,0.15966489911079407
1712834339113873700,19.978873779296876,0.18860463798046112,0.5393176674842834,0.15477798879146576
1712834339133840100,19.998840087890624,0.21120665967464447,0.563141405582428,0.1376737505197525
1712834339153806800,20.018806884765624,0.2594650089740753,0.5832999348640442,0.11201741546392441
1712834339173773600,20.038773681640624,0.2942843437194824,0.5875760316848755,0.07353290170431137
1712834339193773000,20.05877294921875,0.30222558975219727,0.5802456140518188,0.025274548679590225
1712834339213773000,20.07877294921875,0.29917123913764954,0.5661957263946533,-0.010155634954571724
1712834339233773600,20.098773681640626,0.2906191349029541,0.534430742263794,-0.03153591975569725
1712834339253773600,20.118773681640626,0.2692388594150543,0.5124396085739136,-0.03520110994577408
1712834339273773600,20.138773681640625,0.2344195395708084,0.5680283308029175,-0.0071013085544109344
1712834339293773600,20.158773681640625,0.1941024363040924,0.6792057752609253,0.01061378326267004
1712834339313773600,20.178773681640624,0.15073099732398987,0.8197047710418701,-0.012599095702171326
1712834339333773300,20.198773193359376,0.08964447677135468,0.9644798636436462,-0.0645226389169693
1712834339353773300,20.218773193359375,0.013897184282541275,1.114141821861267,-0.12805262207984924
1712834339373773300,20.238773193359375,-0.035582900047302246,1.264414668083191,-0.19280433654785156
1712834339393772800,20.258772705078126,-0.04657847434282303,1.4201853275299072,-0.2575560510158539
1712834339413772800,20.278772705078126,-0.03375030308961868,1.5637387037277222,-0.330859899520874
1712834339433772800,20.298772705078125,0.00045814894838258624,1.668196678161621,-0.40966150164604187
1712834339453772800,20.318772705078125,0.04382958263158798,1.748830795288086,-0.48724138736724854
1712834339473772300,20.338772216796876,0.11835514008998871,1.8685604333877563,-0.5550474524497986
1712834339493772300,20.358772216796876,0.2252565622329712,2.0298287868499756,-0.6295729875564575
1712834339513772300,20.378772216796875,0.3266601860523224,2.1855995655059814,-0.7040985822677612
1712834339533772300,20.398772216796875,0.3969096839427948,2.3694698810577393,-0.748691737651825
1712834339553772300,20.418772216796874,0.4317290186882019,2.51424503326416,-0.7651850581169128
1712834339573772300,20.438772216796874,0.5068654417991638,2.6205356121063232,-0.7731263041496277
1712834339593772000,20.45877197265625,0.6094908118247986,2.7048349380493164,-0.7627416253089905
1712834339613772000,20.47877197265625,0.727998673915863,2.803795099258423,-0.7321983575820923
1712834339633772000,20.49877197265625,0.8746063113212585,2.932687759399414,-0.6876052021980286
1712834339653771800,20.518771728515624,1.059698462486267,3.100675582885742,-0.6173557043075562
1712834339673771300,20.538771240234375,1.2545645236968994,3.2753829956054688,-0.5275585055351257
1712834339693771000,20.55877099609375,1.4347697496414185,3.3786191940307617,-0.4395939111709595
1712834339713771000,20.57877099609375,1.563051462173462,3.337080478668213,-0.35590535402297974
1712834339733771300,20.598771240234374,1.6278032064437866,3.130608081817627,-0.25450173020362854
1712834339753770800,20.618770751953125,1.6614007949829102,2.79829740524292,-0.16165021061897278
1712834339773770800,20.638770751953125,1.600925087928772,2.229581832885742,-0.1249983012676239
1712834339793771000,20.65877099609375,1.3584115505218506,1.419574499130249,-0.11766792088747025
1712834339813771000,20.67877099609375,0.9558513760566711,0.6492733955383301,-0.08223773539066315
1712834339833770800,20.698770751953123,0.5697845816612244,0.03474296256899834,-0.05780312418937683
1712834339853770800,20.718770751953127,0.22342395782470703,-0.3934735655784607,-0.08345946669578552
1712834339873770800,20.738770751953126,-0.09300423413515091,-0.5663484334945679,-0.13171781599521637
1712834339893770800,20.758770751953126,-0.3459024429321289,-0.5474116206169128,-0.1653154045343399
1712834339913770800,20.778770751953125,-0.5181664228439331,-0.42096251249313354,-0.17203491926193237
1712834339933770800,20.798770751953125,-0.5688682794570923,-0.1802816092967987,-0.1702023297548294
1712834339953770800,20.818770751953124,-0.4778493344783783,0.1886810064315796,-0.18303050100803375
1712834339973770800,20.838770751953124,-0.25366178154945374,0.6804275512695312,-0.19402606785297394
1712834339993771300,20.858771240234375,0.13545936346054077,1.6034449338912964,-0.16348281502723694
1712834340013771300,20.878771240234375,0.4262312352657318,2.4513258934020996,-0.12316570430994034
1712834340033771300,20.898771240234375,0.7145596146583557,3.203911781311035,-0.1201113760471344
1712834340053771300,20.918771240234374,0.9515753388404846,3.574096202850342,-0.1610393524169922
1712834340073771500,20.938771484375,1.077413558959961,3.6345717906951904,-0.17692184448242188
1712834340093771800,20.958771728515625,1.0877982378005981,3.351741313934326,-0.16775886714458466
1712834340113771800,20.978771728515625,0.9191994667053223,2.9088640213012695,-0.1702023297548294
1712834340133771800,20.998771728515624,0.6632469296455383,2.5038602352142334,-0.20257818698883057
1712834340153771800,21.018771728515624,0.4671591818332672,2.229581832885742,-0.2709950804710388
1712834340173771800,21.038771728515623,0.40362921357154846,2.1684951782226562,-0.3357468247413635
1712834340193772000,21.05877197265625,0.4005748927593231,2.3151028156280518,-0.3583488166332245
1712834340213772000,21.07877197265625,0.3865249752998352,2.583272695541382,-0.3583488166332245
1712834340233772300,21.098772216796874,0.4280638098716736,2.9137508869171143,-0.34002286195755005
1712834340253772500,21.1187724609375,0.5795583724975586,3.2295682430267334,-0.2966514229774475
1712834340273772500,21.1387724609375,0.8165740966796875,3.5062901973724365,-0.2312888503074646
1712834340293772500,21.1587724609375,1.0841331481933594,3.663282632827759,-0.1811978965997696
1712834340313772500,21.1787724609375,1.2997685670852661,3.5979199409484863,-0.13782647252082825
1712834340333772300,21.198772216796876,1.4231632947921753,3.2271246910095215,-0.10056369006633759
1712834340353772800,21.218772705078123,1.4824172258377075,2.539290428161621,-0.11339186131954193
1712834340373772800,21.238772705078127,1.4701999425888062,1.6559792757034302,-0.17386752367019653
1712834340393772800,21.258772705078126,1.363909363746643,0.8429176807403564,-0.24900394678115845
1712834340413772800,21.278772705078126,1.2087496519088745,0.30291280150413513,-0.3009274899959564
1712834340433772800,21.298772705078125,1.1336132287979126,0.04818199574947357,-0.3119230568408966
1712834340453772800,21.318772705078125,1.134834885597229,0.010308351367712021,-0.3064252734184265
1712834340473772800,21.338772705078124,1.1299480199813843,0.1526399552822113,-0.28443413972854614
1712834340493772800,21.358772705078124,1.1238393783569336,0.2528218626976013,-0.26855164766311646
1712834340513772800,21.378772705078124,1.0627528429031372,0.25160011649131775,-0.2557234764099121
1712834340533772800,21.398772705078127,0.9283624291419983,0.0872773751616478,-0.2264019250869751
1712834340553772800,21.418772705078126,0.7341073155403137,-0.2309834212064743,-0.17875444889068604
1712834340573772800,21.438772705078126,0.5038111209869385,-0.6011677384376526,-0.14332425594329834
1712834340593773000,21.45877294921875,0.2790127098560333,-0.8803331851959229,-0.1457677185535431
1712834340613773000,21.47877294921875,0.12324206531047821,-0.9976193308830261,-0.1506546437740326
1712834340633773000,21.49877294921875,0.05910121276974678,-0.891328752040863,-0.1659262776374817
1712834340653773000,21.51877294921875,-0.019089538604021072,-0.5785657167434692,-0.14760030806064606
1712834340673773000,21.53877294921875,-0.08811730891466141,-0.2505311071872711,-0.13232868909835815
1712834340693772500,21.5587724609375,-0.11071932315826416,-0.04222606122493744,-0.1146135926246643
1712834340713772500,21.5787724609375,-0.13820825517177582,0.12454015016555786,-0.05719225853681564
1712834340733772800,21.598772705078126,-0.1791362315416336,0.29130637645721436,0.02955060638487339
1712834340753772800,21.618772705078126,-0.25305092334747314,0.3811035454273224,0.1529453843832016
1712834340773772800,21.638772705078125,-0.30925053358078003,0.258930504322052,0.2842814028263092
1712834340793772800,21.658772705078125,-0.2701551616191864,-0.13446670770645142,0.3850741684436798
1712834340813772800,21.678772705078124,-0.2402227520942688,-0.7367798686027527,0.4461607038974762
1712834340833772500,21.6987724609375,-0.34895676374435425,-1.422170639038086,0.4602105915546417
1712834340853772500,21.7187724609375,-0.6189591884613037,-2.153376340866089,0.42416954040527344
1712834340873772500,21.7387724609375,-0.9836457371711731,-2.932229518890381,0.34292447566986084
1712834340893772500,21.7587724609375,-1.2848023176193237,-3.5320992469787598,0.20914499461650848
1712834340913772500,21.7787724609375,-1.4485142230987549,-3.8546359539031982,0.02099849283695221
1712834340933772500,21.7987724609375,-1.543809175491333,-3.8906772136688232,-0.20013472437858582
1712834340953772500,21.8187724609375,-1.5541938543319702,-3.630448579788208,-0.28443413972854614
1712834340973772500,21.8387724609375,-1.496161699295044,-3.2022318840026855,-0.34063372015953064
1712834340993772500,21.8587724609375,-1.4069753885269165,-2.795395612716675,-0.4139375686645508
1712834341013772500,21.8787724609375,-1.3232868909835815,-2.4985151290893555,-0.5067890882492065
1712834341033772500,21.8987724609375,-1.3104586601257324,-2.312812089920044,-0.606360137462616
1712834341053772500,21.9187724609375,-1.325730323791504,-2.2022454738616943,-0.6650031805038452
1712834341073772500,21.9387724609375,-1.3556627035140991,-2.139937400817871,-0.6857725977897644
1712834341093772800,21.958772705078125,-1.4246904850006104,-2.098398447036743,-0.7016550898551941
1712834341113772800,21.978772705078125,-1.5224288702011108,-2.0434205532073975,-0.7083746194839478
1712834341133772800,21.998772705078125,-1.6146695613861084,-1.9627864360809326,-0.6711118221282959
1712834341153772800,22.018772705078124,-1.676366925239563,-1.8650479316711426,-0.5886450409889221
1712834341173772800,22.038772705078124,-1.6818647384643555,-1.7746398448944092,-0.4939609169960022
1712834341193772500,22.0587724609375,-1.6171129941940308,-1.6323082447052002,-0.38461601734161377
1712834341213772500,22.0787724609375,-1.4753923416137695,-1.4667638540267944,-0.25938865542411804
1712834341233772800,22.098772705078126,-1.306182622909546,-1.309160590171814,-0.12377656996250153
1712834341253772800,22.118772705078126,-1.147357702255249,-1.1124619245529175,0.039935316890478134
1712834341273772800,22.138772705078125,-0.9867000579833984,-0.9695194959640503,0.21097758412361145
1712834341293773000,22.15877294921875,-0.8101600408554077,-0.901102602481842,0.3496440052986145
1712834341313773000,22.17877294921875,-0.6543893814086914,-0.8907178640365601,0.4608214795589447
1712834341333772800,22.198772705078124,-0.5077817440032959,-0.9450848698616028,0.554894745349884
1712834341353772800,22.218772705078123,-0.40515637397766113,-1.0470993518829346,0.6398049592971802
1712834341373772800,22.238772705078127,-0.3452915847301483,-1.150335669517517,0.7375434041023254
1712834341393772800,22.258772705078126,-0.25732699036598206,-1.318934440612793,0.8242862820625305
1712834341413772800,22.278772705078126,-0.19562959671020508,-1.4362205266952515,0.9024770259857178
1712834341433772800,22.298772705078125,-0.24205535650253296,-1.5364024639129639,0.9660070538520813
1712834341453772800,22.318772705078125,-0.2952006161212921,-1.5724434852600098,1.0154870748519897
1712834341473772800,22.338772705078124,-0.29825496673583984,-1.5980998277664185,1.0588585138320923
1712834341493772800,22.358772705078124,-0.28909197449684143,-1.6011542081832886,1.0881800651550293
1712834341513772800,22.378772705078124,-0.3000875413417816,-1.5754978656768799,1.107116937637329
1712834341533772800,22.398772705078127,-0.28787025809288025,-1.5156329870224,1.1205558776855469
1712834341553772800,22.418772705078126,-0.2799290120601654,-1.3702471256256104,1.1229994297027588
1712834341573772800,22.438772705078126,-0.3251330256462097,-1.1631637811660767,1.0924561023712158
1712834341593773000,22.45877294921875,-0.38499781489372253,-0.9133198857307434,1.045419454574585
1712834341613773000,22.47877294921875,-0.4124867618083954,-0.6585890650749207,1.0118218660354614
1712834341633773000,22.49877294921875,-0.3959933817386627,-0.4087451994419098,0.9788352251052856
1712834341653773000,22.51877294921875,-0.3501785099506378,-0.15340353548526764,0.9409615397453308
1712834341673773000,22.53877294921875,-0.25244006514549255,0.027412578463554382,0.9043096303939819
1712834341693772800,22.558772705078123,-0.13698652386665344,0.04634939879179001,0.8462774157524109
1712834341713772800,22.578772705078126,-0.07773260027170181,0.1575268805027008,0.5194645524024963
1712834341733773000,22.59877294921875,-0.128434419631958,0.5881868600845337,-0.0541379339993
1712834341753773000,22.61877294921875,-0.044135015457868576,1.1452959775924683,-0.5287802219390869
1712834341773773000,22.63877294921875,0.1385136991739273,1.2778537273406982,-0.5385540723800659
1712834341793773000,22.65877294921875,0.09941831976175308,1.0866528749465942,-0.38644862174987793
1712834341813773000,22.67877294921875,0.04077525436878204,0.37866008281707764,-0.330859899520874
1712834341833772800,22.698772705078124,0.034666601568460464,-0.5626832246780396,-0.3161991238594055
1712834341853772800,22.718772705078123,-0.0032070425804704428,-1.3048845529556274,-0.2874884605407715
1712834341873772800,22.738772705078127,0.019394971430301666,-1.7355445623397827,-0.2703842222690582
1712834341893772800,22.758772705078126,0.08475755155086517,-1.5345698595046997,-0.28382325172424316
1712834341913772800,22.778772705078126,0.14156801998615265,-1.0067822933197021,-0.25999951362609863
1712834341933772800,22.798772705078125,0.1837177276611328,-0.5241987109184265,-0.23800836503505707
1712834341953772800,22.818772705078125,0.15256360173225403,-0.32383492588996887,-0.2813797891139984
1712834341973772800,22.838772705078124,0.05665775015950203,-0.48693597316741943,-0.3669009506702423
1712834341993772800,22.858772705078124,-0.0630718395113945,-0.8418486714363098,-0.40110939741134644
1712834342013772800,22.878772705078124,-0.18096883594989777,-1.0660362243652344,-0.3363576829433441
1712834342033772800,22.898772705078127,-0.21578814089298248,-1.0587058067321777,-0.24961480498313904
1712834342053772800,22.918772705078126,-0.15286903083324432,-0.7722100019454956,-0.17692184448242188
1712834342073772800,22.938772705078126,-0.027030786499381065,-0.3287218511104584,-0.10300715267658234
1712834342093773000,22.95877294921875,0.13484850525856018,0.012751812115311623,-0.018707748502492905
1712834342113773000,22.97877294921875,0.27779096364974976,0.15447254478931427,0.07170030474662781
1712834342133773000,22.99877294921875,0.3663664162158966,0.12881620228290558,0.1370628923177719
1712834342153773000,23.01877294921875,0.4115704596042633,-0.004352414980530739,0.1688278764486313
1712834342173773000,23.03877294921875,0.42439863085746765,-0.19494237005710602,0.19142989814281464
1712834342193772800,23.058772705078123,0.3871358633041382,-0.4246276915073395,0.20975585281848907
1712834342213772800,23.078772705078126,0.28695395588874817,-0.6616434454917908,0.23235787451267242
1712834342233773000,23.09877294921875,0.15195272862911224,-0.8675050139427185,0.25068381428718567
1712834342253773000,23.11877294921875,0.020616702735424042,-1.0458776950836182,0.2586250603199005
1712834342273773000,23.13877294921875,-0.10216721147298813,-1.157055139541626,0.26656633615493774
1712834342293773000,23.15877294921875,-0.2151772826910019,-1.175381064414978,0.273285835981369
1712834342313773000,23.17877294921875,-0.3006984293460846,-1.1301770210266113,0.2726749777793884
1712834342333772800,23.198772705078124,-0.4008803069591522,-1.060538411140442,0.25129470229148865
1712834342353772800,23.218772705078123,-0.471129834651947,-1.0562623739242554,0.23052527010440826
1712834342373772800,23.238772705078127,-0.5285511612892151,-1.069090485572815,0.20975585281848907
1712834342393772800,23.258772705078126,-0.5395467281341553,-1.0470993518829346,0.17127133905887604
1712834342413772800,23.278772705078126,-0.47540587186813354,-0.9408088326454163,0.1272890418767929
1712834342433772800,23.298772705078125,-0.36361753940582275,-0.700738787651062,0.10041097551584244
1712834342453772800,23.318772705078125,-0.2542726695537567,-0.41546472907066345,0.06803511828184128
1712834342473772800,23.338772705078124,-0.1595885455608368,-0.20288361608982086,0.03749185428023338
1712834342493772800,23.358772705078124,-0.09056077152490616,-0.07338018715381622,0.028328875079751015
1712834342513772800,23.378772705078124,0.005955935921519995,0.03107776865363121,0.022220224142074585
1712834342533772800,23.398772705078127,0.11591167747974396,0.11965323239564896,-0.010155634954571724
1712834342553772800,23.418772705078126,0.16661348938941956,0.1776854246854782,-0.053527068346738815
1712834342573772800,23.438772705078126,0.17699819803237915,0.2803107798099518,-0.05535966157913208
1712834342593773000,23.45877294921875,0.12751811742782593,0.3560580909252167,-0.029703322798013687
1712834342613773000,23.47877294921875,-0.01237002108246088,0.3804926872253418,-0.030314188450574875
1712834342633773000,23.49877294921875,-0.098502017557621,0.40431642532348633,-0.039477165788412094
1712834342653773000,23.51877294921875,-0.09911288321018219,0.429972767829895,-0.047418415546417236
1712834342673773000,23.53877294921875,-0.09422596544027328,0.45868343114852905,-0.0290924571454525
1712834342693772800,23.558772705078123,-0.07040221989154816,0.39209914207458496,-0.015653422102332115
1712834342713772800,23.578772705078126,-0.01970040425658226,0.2393828183412552,-0.01687515154480934
1712834342733773000,23.59877294921875,0.019394971430301666,0.04207334294915199,-0.06391177326440811
1712834342753773000,23.61877294921875,0.03039054572582245,-0.08804095536470413,-0.13293954730033875
1712834342773773000,23.63877294921875,0.03588833287358284,-0.08620835840702057,-0.1909717470407486
1712834342793773000,23.65877294921875,0.09941831976175308,0.06467536091804504,-0.24961480498313904
1712834342813773000,23.67877294921875,0.19776763021945953,0.24488060176372528,-0.30214923620224
1712834342833772800,23.698772705078124,0.26251932978630066,0.41836634278297424,-0.3259729743003845
1712834342853772800,23.718772705078123,0.26801711320877075,0.5387067794799805,-0.32414036989212036
1712834342873772800,23.738772705078127,0.27229318022727966,0.5906303524971008,-0.3119230568408966
1712834342893772800,23.758772705078126,0.24297164380550385,0.5906303524971008,-0.2972623109817505
1712834342913772800,23.778772705078126,0.18677204847335815,0.5936846733093262,-0.28932106494903564
1712834342933772800,23.798772705078125,0.12079860270023346,0.6175084114074707,-0.272827684879303
1712834342953772800,23.818772705078125,0.09392052888870239,0.7079164385795593,-0.24961480498313904
1712834342973772800,23.838772705078124,0.14584407210350037,0.8160396218299866,-0.2416735589504242
1712834342993772800,23.858772705078124,0.23869559168815613,0.9192758202552795,-0.230677992105484
1712834343013772800,23.878772705078124,0.32360586524009705,1.0402271747589111,-0.2056325078010559
1712834343033772800,23.898772705078127,0.3956879675388336,1.1312460899353027,-0.17325665056705475
1712834343053772800,23.918772705078126,0.4628831446170807,1.1281917095184326,-0.15859588980674744
1712834343073772800,23.938772705078126,0.5105306506156921,1.028620719909668,-0.15859588980674744
1712834343093772800,23.958772705078125,0.5154175758361816,0.8795695900917053,-0.16775886714458466
1712834343113772800,23.978772705078125,0.4830417037010193,0.7451792359352112,-0.16287194192409515
1712834343133772800,23.998772705078125,0.42378777265548706,0.6077345609664917,-0.13660474121570587
1712834343153772800,24.018772705078124,0.3413209617137909,0.4373031556606293,-0.10728321224451065
1712834343173772800,24.038772705078124,0.24846944212913513,0.28214338421821594,-0.08223773539066315
1712834343193772800,24.058772705078123,0.18677204847335815,0.20212003588676453,-0.05230533704161644
1712834343213772800,24.078772705078126,0.17211128771305084,0.23083069920539856,-0.016264287754893303
1712834343233773000,24.09877294921875,0.19654589891433716,0.3334560692310333,0.011224648915231228
1712834343253773000,24.11877294921875,0.204487144947052,0.4519639313220978,0.033826664090156555
1712834343273773000,24.13877294921875,0.17577648162841797,0.5185482501983643,0.05520694702863693
1712834343293773000,24.15877294921875,0.14278975129127502,0.4556291103363037,0.06375905871391296
1712834343313773000,24.17877294921875,0.07009678333997726,0.3542254865169525,0.07170030474662781
1712834343333772800,24.198772705078124,-0.019089538604021072,0.2833651304244995,0.07597636431455612
1712834343353772800,24.218772705078123,-0.09728029370307922,0.26687175035476685,0.07903069257736206
1712834343373772800,24.238772705078127,-0.1394299864768982,0.34811684489250183,0.06436992436647415
1712834343393772800,24.258772705078126,-0.1547016203403473,0.5216025710105896,0.04970915988087654
1712834343413772800,24.278772705078126,-0.12782354652881622,0.7476227283477783,0.05337435007095337
1712834343433772800,24.298772705078125,-0.041691552847623825,0.9498190879821777,0.07170030474662781
1712834343453772800,24.318772705078125,0.05971207842230797,1.0438923835754395,0.08147415518760681
1712834343473772800,24.338772705078124,0.12446379661560059,1.01212739944458,0.09857837855815887
1712834343493772800,24.358772705078124,0.13301590085029602,0.8752935528755188,0.1376737505197525
1712834343513772800,24.378772705078124,0.0835358202457428,0.6559929251670837,0.17982345819473267
1712834343533772800,24.398772705078127,0.02122756652534008,0.4256967306137085,0.1975385546684265
1712834343553772800,24.418772705078126,-0.038637228310108185,0.2381610870361328,0.18654297292232513
1712834343573772800,24.438772705078126,-0.0832303911447525,0.11476630717515945,0.16516269743442535
1712834343593772800,24.458772705078125,-0.11927144229412079,0.08788824081420898,0.15050192177295685
1712834343613772800,24.478772705078125,-0.1589776873588562,0.10621419548988342,0.13461942970752716
1712834343633772800,24.498772705078125,-0.20173825323581696,0.10987938940525055,0.10835222154855728
1712834343653772800,24.518772705078124,-0.25732699036598206,0.06772968173027039,0.08147415518760681
1712834343673772800,24.538772705078124,-0.30802878737449646,-0.007406740915030241,0.0417679101228714
1712834343693772800,24.558772705078123,-0.35262197256088257,-0.09903652966022491,-0.005879578180611134
1712834343713772800,24.578772705078126,-0.39843684434890747,-0.16684256494045258,-0.04986187443137169
