time,seconds_elapsed,z,y,x
1712835194406042400,0.09604248046875,0.019222259521484375,-0.18602418899536133,0.11179733276367188
1712835194428042200,0.118042236328125,0.004393100738525391,-0.04674816131591797,0.009745121002197266
1712835194448042200,0.138042236328125,-0.07847738265991211,0.0720672607421875,-0.09451723098754883
1712835194468042200,0.158042236328125,-0.0830373764038086,-0.20851564407348633,0.03549766540527344
1712835194488042200,0.178042236328125,-0.0540156364440918,-0.2792062759399414,0.1970067024230957
1712835194508042200,0.198042236328125,-0.07016420364379883,-0.1050100326538086,-0.11904716491699219
1712835194528042200,0.218042236328125,-0.04015398025512695,-0.010922908782958984,-0.6070671081542969
1712835194548042200,0.238042236328125,-0.0952153205871582,-0.1229085922241211,0.0741124153137207
1712835194568042200,0.258042236328125,-0.16474580764770508,-0.23175525665283203,0.39243030548095703
1712835194588042200,0.278042236328125,-0.3031883239746094,-0.7678704261779785,1.3467857837677002
1712835194608042200,0.298042236328125,-0.1828289031982422,-0.6120576858520508,1.6534976959228516
1712835194628042200,0.318042236328125,-0.3242945671081543,-0.10745763778686523,1.8642926216125488
1712835194648042200,0.338042236328125,-1.2127618789672852,-0.36345720291137695,2.281458616256714
1712835194668042200,0.358042236328125,-1.140641689300537,-0.6752152442932129,3.307318925857544
1712835194688043000,0.37804296875,-1.0408287048339844,1.26185941696167,2.555039644241333
1712835194708043000,0.39804296875,-2.4270131587982178,0.3645648956298828,4.021546840667725
1712835194728043000,0.41804296875,-2.096872568130493,0.20481061935424805,4.2266716957092285
1712835194748043000,0.43804296875,-0.8750400543212891,2.95149564743042,4.020356178283691
1712835194767984000,0.457984130859375,-3.3571205139160156,2.244190216064453,-0.2604527473449707
1712835194787928600,0.477928466796875,-2.164315938949585,1.4450325965881348,-0.44756269454956055
1712835194807875800,0.497875732421875,-0.7217075824737549,1.3764610290527344,0.6515994071960449
1712835194827826000,0.517825927734375,-0.7873072624206543,1.5588531494140625,0.1533646583557129
1712835194847778300,0.5377783203125,-0.6117575168609619,1.228743076324463,-0.5137710571289062
1712835194867733000,0.55773291015625,-0.4878997802734375,0.7515554428100586,-0.1484847068786621
1712835194887689500,0.577689453125,-0.28658485412597656,0.49927377700805664,-0.3594646453857422
1712835194907648000,0.59764794921875,-0.3029799461364746,1.7357597351074219,-0.5785789489746094
1712835194927608000,0.617608154296875,-0.5889413356781006,1.105086326599121,-2.62288761138916
1712835194947569700,0.637569580078125,-0.8042786121368408,0.18338394165039062,-0.8595046997070312
1712835194967532500,0.657532470703125,-0.7572475671768188,1.592813491821289,0.05245399475097656
1712835194987497000,0.6774970703125,-0.5221338272094727,3.739565849304199,-0.5567202568054199
1712835195007462400,0.69746240234375,-0.21244597434997559,2.806687355041504,-2.6038739681243896
1712835195027429000,0.71742919921875,0.33434176445007324,1.6543502807617188,-2.2542431354522705
1712835195047396000,0.73739599609375,-0.042086124420166016,1.3648128509521484,-0.775639533996582
1712835195067362600,0.757362548828125,-0.14445018768310547,1.2750988006591797,-1.1742920875549316
1712835195087329300,0.777329345703125,-1.5320326089859009,2.0042409896850586,-2.4215731620788574
1712835195107296000,0.7972958984375,-1.6124972105026245,1.9520244598388672,-2.78756046295166
1712835195127262700,0.8172626953125,-1.0249271392822266,0.4248838424682617,-3.40975022315979
1712835195147229200,0.837229248046875,-1.3201987743377686,-0.7539911270141602,-0.664826512336731
1712835195167196000,0.85719580078125,-1.365024447441101,-1.2133846282958984,-1.0468697547912598
1712835195187162600,0.87716259765625,-1.1976375579833984,-1.6065874099731445,-1.382765531539917
1712835195207129300,0.89712939453125,-1.118196964263916,-1.6431732177734375,-1.5232561826705933
1712835195227096000,0.917095947265625,-0.010646820068359375,-0.040985107421875,-0.6403496265411377
1712835195247062500,0.9370625,0.1074666976928711,0.5878734588623047,0.8888756036758423
1712835195267029200,0.957029296875,0.4785642623901367,1.105137825012207,0.864821195602417
1712835195286995700,0.97699560546875,1.4655230045318604,0.7827892303466797,1.0761961936950684
1712835195306962400,0.99696240234375,2.3671371936798096,0.4640674591064453,2.03704833984375
1712835195326929000,1.016928955078125,1.8942675590515137,-0.10861873626708984,2.6863648891448975
1712835195346895600,1.0368955078125,3.448936700820923,1.282271385192871,1.5690867900848389
1712835195366895600,1.0568955078125,2.572760581970215,1.0258817672729492,-1.8318265676498413
1712835195386895600,1.0768955078125,2.4655189514160156,1.0592479705810547,-1.90786612033844
1712835195406895900,1.096895751953125,-5.609078884124756,-1.553168773651123,-3.4050369262695312
1712835195426896000,1.116895751953125,-3.519145965576172,-0.9191036224365234,0.7345932722091675
1712835195446895900,1.136895751953125,-0.46781444549560547,-1.1412248611450195,1.2998807430267334
1712835195466896000,1.156895751953125,-0.4662134647369385,-1.1402521133422852,1.2734577655792236
1712835195486895900,1.176895751953125,-2.0043976306915283,-1.3178911209106445,-3.0678718090057373
1712835195506895600,1.1968955078125,-2.866870403289795,-1.9918270111083984,-4.212425708770752
1712835195526895600,1.2168955078125,-2.834320068359375,-0.6858549118041992,-3.9383544921875
1712835195546896000,1.236895751953125,-1.355342984199524,-0.3279895782470703,-3.694319248199463
1712835195566895900,1.256895751953125,-0.4991469383239746,0.7340097427368164,-2.25874924659729
1712835195586896000,1.276895751953125,-0.015435934066772461,1.5492238998413086,-0.4808412492275238
1712835195606895900,1.296895751953125,-0.2870900630950928,1.6646156311035156,0.1897425353527069
1712835195626896000,1.316895751953125,-0.5294806957244873,1.0443382263183594,0.004390135407447815
1712835195646895600,1.3368955078125,-0.6463605165481567,1.486313819885254,0.3051356077194214
1712835195666895600,1.3568955078125,-0.5503401756286621,1.1245508193969727,0.8185486793518066
1712835195686895600,1.3768955078125,-0.21526741981506348,0.7737607955932617,1.3836479187011719
1712835195706895600,1.3968955078125,-0.2127070426940918,0.6179170608520508,1.574992060661316
1712835195726895600,1.4168955078125,-0.4383668899536133,0.15752887725830078,1.6375155448913574
1712835195746895600,1.4368955078125,-0.46757936477661133,-0.40373802185058594,1.7536944150924683
1712835195766895600,1.4568955078125,-0.20701265335083008,-1.197239875793457,1.7639553546905518
1712835195786895600,1.4768955078125,0.457477331161499,-1.3920197486877441,1.8918958902359009
1712835195806895600,1.4968955078125,0.38675880432128906,-1.3723835945129395,1.7523083686828613
1712835195826895600,1.5168955078125,1.9727258682250977,-1.246016502380371,1.783064842224121
1712835195846895600,1.5368955078125,1.8998103141784668,-1.21893310546875,1.6083446741104126
1712835195866895600,1.5568955078125,1.9297149181365967,-0.77935791015625,0.37464842200279236
1712835195886895600,1.5768955078125,1.8774726390838623,-1.170095443725586,-0.756845235824585
1712835195906896000,1.596895751953125,1.8513026237487793,-1.6137161254882812,-1.5666612386703491
1712835195926895900,1.616895751953125,1.4663872718811035,-1.9192619323730469,-1.8907359838485718
1712835195946896000,1.636895751953125,1.1696445941925049,-2.26595401763916,-1.8881845474243164
1712835195966895000,1.65689501953125,1.2018682956695557,-2.6964001655578613,-1.4998831748962402
1712835196005594600,1.6955947265625,1.0062835216522217,-3.0699844360351562,-1.5755749940872192
1712835196025594600,1.7155947265625,0.6710762977600098,-3.4440345764160156,-1.7433936595916748
1712835196045595000,1.735594970703125,0.012229204177856445,-3.889864444732666,-2.086440086364746
1712835196065595000,1.755594970703125,-0.11092948913574219,-3.862366199493408,-2.5924835205078125
1712835196085595000,1.775594970703125,-0.2726161479949951,-3.8566479682922363,-3.562716484069824
1712835196105595000,1.795594970703125,-0.2891409397125244,-3.727914333343506,-3.8466501235961914
1712835196125595000,1.815594970703125,-0.6125943660736084,-4.142923831939697,-4.607235908508301
1712835196145594600,1.8355947265625,-0.556891679763794,-4.016115188598633,-4.905852317810059
1712835196165594600,1.8555947265625,-1.5467734336853027,-3.960793972015381,-3.7401745319366455
1712835196185594600,1.8755947265625,-1.3595895767211914,-3.8977856636047363,-3.988179922103882
1712835196205594600,1.8955947265625,-1.7940610647201538,-3.4836173057556152,-3.515322685241699
1712835196225594600,1.9155947265625,-2.567091703414917,-2.750276565551758,-2.8530120849609375
1712835196245594600,1.9355947265625,-2.1935598850250244,-1.6027312278747559,1.4850802421569824
1712835196265594600,1.9555947265625,-2.987025499343872,-1.120276927947998,3.9008474349975586
1712835196285594600,1.9755947265625,-2.7627594470977783,-1.096653938293457,4.96623420715332
1712835196305594600,1.9955947265625,-2.1890110969543457,-0.6915950775146484,5.3916707038879395
1712835196325594600,2.0155947265625,-2.3481290340423584,0.0966787338256836,5.20988655090332
1712835196345594600,2.0355947265625,-3.1544501781463623,0.4050273895263672,5.204672336578369
1712835196365594600,2.0555947265625,-3.777580738067627,1.2330894470214844,4.747818470001221
1712835196385594600,2.0755947265625,-3.62571120262146,1.0959835052490234,4.959930896759033
1712835196405595000,2.095594970703125,-2.7799232006073,0.34052085876464844,4.420375347137451
1712835196425595000,2.115594970703125,-2.2251720428466797,-0.43671226501464844,4.450944423675537
1712835196445595000,2.135594970703125,-3.404341459274292,0.5246925354003906,3.544872283935547
1712835196465595000,2.155594970703125,-4.257309436798096,0.3922557830810547,3.7369866371154785
1712835196485595000,2.175594970703125,-4.306689739227295,1.2233314514160156,5.924860000610352
1712835196505594600,2.1955947265625,-5.660268306732178,5.006721496582031,5.127987861633301
1712835196525594600,2.2155947265625,-6.277177810668945,6.689750671386719,7.27599573135376
1712835196545595000,2.235594970703125,-3.657526731491089,7.579855918884277,12.932541847229004
1712835196565595600,2.255595703125,1.521596074104309,8.514653205871582,15.498872756958008
1712835196585595600,2.275595703125,3.626703977584839,8.485774993896484,14.106212615966797
1712835196605595600,2.295595703125,-1.9585905075073242,9.972148895263672,11.202494621276855
1712835196625595600,2.315595703125,-3.949186086654663,9.189339637756348,1.0522408485412598
1712835196645595400,2.335595458984375,-5.480679512023926,7.4641289710998535,-4.075469017028809
1712835196665595400,2.355595458984375,-2.997631549835205,5.35813045501709,-4.214127540588379
1712835196685595400,2.375595458984375,-2.6970739364624023,3.6156888008117676,-5.636469841003418
1712835196705595400,2.395595458984375,0.754103422164917,4.884960651397705,-7.275280475616455
1712835196725595400,2.415595458984375,-0.28707170486450195,4.085216999053955,-8.593626976013184
1712835196745595400,2.435595458984375,-2.094264030456543,1.497316837310791,-7.831533432006836
1712835196765595400,2.455595458984375,-3.5020947456359863,-0.923095703125,-5.146725654602051
1712835196785595400,2.475595458984375,-3.8851675987243652,-1.9144840240478516,-3.9583096504211426
1712835196805595400,2.495595458984375,-3.0068414211273193,-3.148110866546631,-3.7403793334960938
1712835196825595400,2.515595458984375,-3.2448604106903076,-2.3108432292938232,-4.813372611999512
1712835196845595400,2.535595458984375,-5.125558376312256,0.10277700424194336,-6.456940174102783
1712835196865595400,2.555595458984375,-3.581040382385254,0.399045467376709,-6.661299705505371
1712835196885595400,2.575595458984375,-5.97226095199585,-0.07642316818237305,-4.128344535827637
1712835196905595600,2.595595703125,-7.1768903732299805,-1.1733012199401855,-1.6205604076385498
1712835196925595600,2.615595703125,-7.221644401550293,-1.0423212051391602,-0.20241689682006836
1712835196945595600,2.635595703125,-6.028580665588379,-1.523263931274414,-1.3000431060791016
1712835196965595600,2.655595703125,-3.6245956420898438,-0.004111289978027344,-4.453714370727539
1712835196985595600,2.675595703125,-4.002499580383301,2.939399242401123,-8.714218139648438
1712835197005595400,2.695595458984375,-5.096126556396484,5.023045539855957,-7.659253120422363
1712835197025595400,2.715595458984375,-2.1870274543762207,4.7210235595703125,1.3142881393432617
1712835197045595600,2.735595703125,-1.0838245153427124,4.466726303100586,1.3381729125976562
1712835197065595600,2.755595703125,3.114489793777466,-0.36277246475219727,17.93170166015625
1712835197085595600,2.775595703125,3.407972812652588,1.3677730560302734,13.284137725830078
1712835197105595600,2.795595703125,4.464929580688477,4.117852210998535,4.325888633728027
1712835197125595600,2.815595703125,2.8407692909240723,2.589397430419922,-0.20796680450439453
1712835197145595400,2.835595458984375,-1.1115975379943848,2.4165029525756836,1.5291409492492676
1712835197165595400,2.855595458984375,-1.1224437952041626,1.5322728157043457,3.364067554473877
1712835197185595400,2.875595458984375,-0.25533026456832886,0.5592479705810547,2.240920066833496
1712835197205595400,2.895595458984375,-0.1900043934583664,-0.4225893020629883,1.048962116241455
1712835197225595400,2.915595458984375,-1.5969113111495972,-0.9964170455932617,0.091766357421875
1712835197245595400,2.935595458984375,-1.9858770370483398,-1.3383054733276367,-0.8742375373840332
1712835197265595400,2.955595458984375,-1.523814082145691,-1.8141818046569824,-1.04368257522583
1712835197285595400,2.975595458984375,-1.240907907485962,-2.4479594230651855,-0.6723146438598633
1712835197305595400,2.995595458984375,-0.7267088890075684,-2.8220200538635254,-0.5826525688171387
1712835197325595400,3.015595458984375,-0.6001781821250916,-2.7368674278259277,-0.5985097885131836
1712835197345595400,3.035595458984375,-0.5655125379562378,-2.597294330596924,-0.3907294273376465
1712835197365595400,3.055595458984375,-0.5323116779327393,-2.600480556488037,-0.39046764373779297
1712835197385595400,3.075595458984375,-0.23489272594451904,-2.3940796852111816,-0.40483522415161133
1712835197405595600,3.095595703125,-0.06587356328964233,-2.6766791343688965,-1.2718353271484375
1712835197425595600,3.115595703125,-0.20323854684829712,-2.8287978172302246,-1.9149785041809082
1712835197445595600,3.135595703125,-0.7554980516433716,-2.744762420654297,-1.636533260345459
1712835197465595600,3.155595703125,-1.220336675643921,-2.5241527557373047,-0.7451848983764648
1712835197485595600,3.175595703125,-1.1801941394805908,-2.385221004486084,-0.004223823547363281
1712835197505595400,3.195595458984375,-0.924428403377533,-2.046048164367676,0.5204830169677734
1712835197525595400,3.215595458984375,-0.9155455827713013,-1.5306720733642578,0.8121423721313477
1712835197545595600,3.235595703125,-0.8251209259033203,-1.2628188133239746,1.2073473930358887
1712835197565595600,3.255595703125,-1.3712880611419678,-1.2057194709777832,1.1894760131835938
1712835197585595600,3.275595703125,-2.52343487739563,-0.628425121307373,0.7611508369445801
1712835197605595600,3.295595703125,-2.9300999641418457,0.9273462295532227,1.4475083351135254
1712835197625595600,3.315595703125,-2.707826614379883,1.623891830444336,2.661698341369629
1712835197645595400,3.335595458984375,-2.18418025970459,2.353297233581543,6.326590061187744
1712835197665595400,3.355595458984375,-1.4192557334899902,4.649021148681641,11.447417259216309
1712835197685595400,3.375595458984375,2.442047357559204,4.568713188171387,13.234954833984375
1712835197705595400,3.395595458984375,2.1035475730895996,5.583853721618652,13.13071060180664
1712835197725595400,3.415595458984375,0.028364069759845734,6.121675491333008,6.674986839294434
1712835197745595400,3.435595458984375,-0.780002236366272,5.1835479736328125,0.7401509284973145
1712835197765595400,3.455595458984375,-1.1105854511260986,4.9215545654296875,-3.1561837196350098
1712835197785595400,3.475595458984375,-2.991291046142578,3.8634109497070312,-7.0100836753845215
1712835197805595400,3.495595458984375,2.405372381210327,4.553282260894775,-2.888007640838623
1712835197825595400,3.515595458984375,5.200543403625488,1.5804200172424316,-2.2268471717834473
1712835197845595400,3.535595458984375,-2.2526183128356934,2.163302421569824,-6.818843841552734
1712835197865595400,3.555595458984375,-6.28662633895874,0.6845526695251465,-8.208126068115234
1712835197885595400,3.575595458984375,-3.393162965774536,-0.7373709678649902,-5.6932549476623535
1712835197905595600,3.595595703125,-2.5896053314208984,-1.735180377960205,-2.644824981689453
1712835197925595600,3.615595703125,-4.223372459411621,-2.593724012374878,-3.2417664527893066
1712835197945595600,3.635595703125,-5.442504405975342,-1.7832756042480469,-3.893693447113037
1712835197965595600,3.655595703125,-5.037285327911377,-0.9227433204650879,-4.769970417022705
1712835197985595600,3.675595703125,-5.158647060394287,-0.570068359375,-5.2227253913879395
1712835198005595400,3.695595458984375,-5.460220813751221,-0.7087240219116211,-3.5688092708587646
1712835198025595400,3.715595458984375,-5.615727424621582,-0.9856953620910645,-2.5032503604888916
1712835198045595600,3.735595703125,-5.705254077911377,-1.5447282791137695,-3.044924259185791
1712835198065595600,3.755595703125,-4.849262237548828,-1.6859769821166992,-5.39368200302124
1712835198085595600,3.775595703125,-2.8771157264709473,0.4528326988220215,-7.081198692321777
1712835198105595600,3.795595703125,-2.070746898651123,0.11032247543334961,-7.20733642578125
1712835198125595600,3.815595703125,-0.780464768409729,6.025918006896973,-8.308806419372559
1712835198145595400,3.835595458984375,-2.5050129890441895,3.808457374572754,-0.48879051208496094
1712835198165595400,3.855595458984375,-5.214012145996094,3.7883729934692383,14.484697341918945
1712835198185595400,3.875595458984375,2.5944225788116455,0.8901996612548828,21.280380249023438
1712835198205595400,3.895595458984375,3.077726125717163,0.8624906539916992,21.39202308654785
1712835198225595400,3.915595458984375,1.614469289779663,2.616626739501953,4.6947712898254395
1712835198245595400,3.935595458984375,-4.540499210357666,3.0721168518066406,1.5923290252685547
1712835198265595400,3.955595458984375,-0.9339801669120789,-0.31638336181640625,2.4354987144470215
1712835198285595400,3.975595458984375,0.046640753746032715,0.6708431243896484,2.5172481536865234
1712835198305595400,3.995595458984375,-0.08588919043540955,0.7701892852783203,2.351283073425293
1712835198325595400,4.015595458984375,0.7685671448707581,-0.5467848777770996,0.4873661994934082
1712835198345595400,4.035595458984375,0.8303773403167725,-1.5510907173156738,1.129603385925293
1712835198365595400,4.055595458984375,0.606363832950592,-1.4164891242980957,0.953669548034668
1712835198385595400,4.075595458984375,-1.8605742454528809,-1.8799333572387695,-1.4343013763427734
1712835198405595600,4.095595703125,-1.9621542692184448,-1.7804317474365234,-1.550828456878662
1712835198425595600,4.115595703125,-1.7650158405303955,-2.3894906044006348,-1.0402884483337402
1712835198445595600,4.135595703125,-1.2896648645401,-2.5237717628479004,0.0911412239074707
1712835198465595600,4.155595703125,-1.0540870428085327,-2.8790488243103027,0.6407527923583984
1712835198485595600,4.175595703125,-0.6294264793395996,-2.7879323959350586,0.5244603157043457
1712835198505595400,4.195595458984375,-0.3032107651233673,-2.3884329795837402,-0.34523487091064453
1712835198525595400,4.215595458984375,-0.3326559364795685,-2.467738151550293,-0.2444925308227539
1712835198545595600,4.235595703125,-1.2286853790283203,-2.0492753982543945,-1.0408315658569336
1712835198565595600,4.255595703125,-1.1486506462097168,-2.1792216300964355,-0.874424934387207
1712835198585595600,4.275595703125,-0.2716365456581116,-1.6619000434875488,0.7178702354431152
1712835198605595600,4.295595703125,-0.1328815519809723,-2.1372976303100586,1.3532462120056152
1712835198625595600,4.315595703125,-0.26708588004112244,-2.226778507232666,1.4430904388427734
1712835198645595400,4.335595458984375,-0.6971807479858398,-1.23539400100708,1.3003339767456055
1712835198665595400,4.355595458984375,-1.5524019002914429,0.3156900405883789,1.0907273292541504
1712835198685595400,4.375595458984375,-1.626457691192627,1.016282081604004,1.5587677955627441
1712835198705595400,4.395595458984375,-1.8194069862365723,1.704503059387207,4.208254337310791
1712835198725595400,4.415595458984375,-1.7106400728225708,1.6605796813964844,4.311519145965576
1712835198745595400,4.435595458984375,-2.1785149574279785,4.005048751831055,8.112395286560059
1712835198765595400,4.455595458984375,2.3567981719970703,3.92757511138916,11.821980476379395
1712835198785595400,4.475595458984375,2.0087411403656006,4.00164794921875,11.644636154174805
1712835198805595400,4.495595458984375,0.003191918134689331,4.341236114501953,5.655802249908447
1712835198825595400,4.515595458984375,-2.1544718742370605,4.666964530944824,0.41083240509033203
1712835198845595400,4.535595458984375,-4.528203010559082,2.619133949279785,-5.4092278480529785
1712835198865595400,4.555595458984375,2.389488697052002,3.6395559310913086,-3.4072179794311523
1712835198885595400,4.575595458984375,8.752790451049805,1.5737881660461426,0.2330183982849121
1712835198905595600,4.595595703125,1.8832120895385742,0.38672780990600586,-2.4477789402008057
1712835198925595600,4.615595703125,-8.453632354736328,4.006442070007324,-10.059211730957031
1712835198945595600,4.635595703125,-8.885493278503418,4.191094398498535,-9.887624740600586
1712835198965595600,4.655595703125,-4.739126205444336,-1.0246996879577637,-2.1975815296173096
1712835198985595600,4.675595703125,-3.0705246925354004,-2.5783023834228516,0.29322052001953125
1712835199005595400,4.695595458984375,-3.200749397277832,-2.8741183280944824,-0.45996618270874023
1712835199025595400,4.715595458984375,-4.4493794441223145,-2.0540404319763184,-2.207585096359253
1712835199045595600,4.735595703125,-4.516005039215088,-1.6290550231933594,-4.926441192626953
1712835199065595600,4.755595703125,-4.617180347442627,-1.6213245391845703,-4.808460235595703
1712835199085595600,4.775595703125,-3.693936824798584,-1.1160707473754883,-4.77506685256958
1712835199105595600,4.795595703125,-3.542320728302002,-1.2425684928894043,-4.801268100738525
1712835199125595600,4.815595703125,-4.146883010864258,0.0967569351196289,-5.399379253387451
1712835199145595400,4.835595458984375,-3.9589645862579346,0.5647521018981934,-5.198105335235596
1712835199165595400,4.855595458984375,-2.5425267219543457,1.0311784744262695,-5.030882358551025
1712835199185595400,4.875595458984375,-1.38395094871521,4.5222392082214355,-6.0831804275512695
1712835199205595400,4.895595458984375,1.8045861721038818,6.31116247177124,-6.0575666427612305
1712835199225595400,4.915595458984375,1.3479883670806885,1.9729585647583008,-1.6970157623291016
1712835199245595400,4.935595458984375,-3.3305463790893555,2.6488142013549805,8.655620574951172
1712835199265595400,4.955595458984375,-2.4575510025024414,1.9722042083740234,14.093384742736816
1712835199285595400,4.975595458984375,-2.0245935916900635,1.8864173889160156,14.23476791381836
1712835199305595400,4.995595458984375,1.124855875968933,1.268087387084961,6.6476664543151855
1712835199325595400,5.015595458984375,0.2666282057762146,1.649169921875,1.2688679695129395
1712835199345595400,5.035595458984375,2.336839199066162,0.7759380340576172,2.4416136741638184
1712835199365595400,5.055595458984375,1.9552466869354248,0.11860370635986328,4.57637357711792
1712835199385595400,5.075595458984375,0.3544742465019226,0.8437662124633789,3.1738619804382324
1712835199405595600,5.095595703125,0.3297268748283386,0.4464864730834961,1.2065558433532715
1712835199425595600,5.115595703125,-0.7050286531448364,-1.6746840476989746,0.5454168319702148
1712835199445595600,5.135595703125,-1.8326270580291748,-2.4199490547180176,-0.9849233627319336
1712835199465595600,5.155595703125,-2.490825653076172,-2.5499324798583984,-2.455568313598633
1712835199485595600,5.175595703125,-2.5857937335968018,-2.4468908309936523,-2.5867652893066406
1712835199505595400,5.195595458984375,-1.2534332275390625,-2.042945384979248,-0.40636396408081055
1712835199525595400,5.215595458984375,-0.5507305264472961,-1.6998639106750488,1.4503917694091797
1712835199545595600,5.235595703125,-0.4673287868499756,-1.6863107681274414,1.4184575080871582
1712835199565595600,5.255595703125,-1.5331292152404785,-1.65944242477417,1.003715991973877
1712835199585595600,5.275595703125,-1.5388588905334473,-1.8201031684875488,-0.012006759643554688
1712835199605595600,5.295595703125,-1.561771035194397,-1.8803424835205078,0.07526922225952148
1712835199625595600,5.315595703125,-0.6243798732757568,-2.5496926307678223,-0.21896743774414062
1712835199645595400,5.335595458984375,-0.606383740901947,-2.641108989715576,-0.5238728523254395
1712835199665595400,5.355595458984375,-0.09439563751220703,-2.700104236602783,-0.46636295318603516
1712835199685595400,5.375595458984375,-0.05503201484680176,-2.130958080291748,-0.6594290733337402
1712835199705595400,5.395595458984375,-0.8748056888580322,-1.1150321960449219,-1.2035083770751953
1712835199725595400,5.415595458984375,-0.7414572238922119,-1.225412368774414,-1.0274415016174316
1712835199745595400,5.435595458984375,-1.1991329193115234,1.0367460250854492,-0.1986408233642578
1712835199765595400,5.455595458984375,-3.0819435119628906,2.931377410888672,1.5571951866149902
1712835199785595400,5.475595458984375,-2.6360490322113037,3.9060192108154297,6.2607741355896
1712835199805595400,5.495595458984375,-0.5471230745315552,5.2251386642456055,11.68269157409668
1712835199825595400,5.515595458984375,-0.6080295443534851,5.221367835998535,11.6904935836792
1712835199845595400,5.535595458984375,5.126800537109375,3.179269790649414,11.86131763458252
1712835199865595400,5.555595458984375,-0.14192324876785278,5.873678207397461,6.813952445983887
1712835199885595400,5.575595458984375,0.11942291259765625,5.22608757019043,-1.4222497940063477
1712835199905595600,5.595595703125,-2.9240427017211914,3.9031124114990234,-6.2141008377075195
1712835199925595400,5.615595458984375,-3.589874744415283,4.214412212371826,-6.364488124847412
1712835199945595400,5.635595458984375,-2.8095757961273193,2.4032058715820312,-6.41587495803833
1712835199965595400,5.655595458984375,2.680251121520996,-0.42694616317749023,-0.6402583122253418
1712835199985562000,5.67556201171875,-2.8757832050323486,0.7623872756958008,-4.365313529968262
1712835200005528600,5.695528564453125,-3.3597018718719482,1.0052056312561035,-4.182856559753418
1712835200025495000,5.7154951171875,-5.228066921234131,-0.3767852783203125,-5.703251361846924
1712835200045461800,5.735461669921875,-4.041241645812988,-1.3691520690917969,-1.5145723819732666
1712835200065428500,5.755428466796875,-4.191919326782227,-1.2177600860595703,-1.520892858505249
1712835200085395200,5.775395263671875,-4.76011323928833,-1.188563346862793,-3.418111562728882
1712835200105362000,5.79536181640625,-5.324916839599609,-0.7243037223815918,-3.861036539077759
1712835200125328600,5.81532861328125,-5.302488803863525,-0.7687191963195801,-3.8329174518585205
1712835200145295000,5.835295166015625,-5.436842441558838,-2.144937515258789,-4.161191940307617
1712835200165261800,5.85526171875,-5.394527435302734,-1.376211166381836,-3.6864876747131348
1712835200185228500,5.875228515625,-3.919581890106201,-0.1306905746459961,-3.8120508193969727
1712835200205195300,5.8951953125,-1.841953992843628,0.527717113494873,-4.900158882141113
1712835200225161700,5.91516162109375,-1.2758524417877197,0.2491912841796875,-5.052241802215576
1712835200245128400,5.93512841796875,0.2034168243408203,6.448259353637695,-5.400491237640381
1712835200265095400,5.955095458984375,1.049309253692627,6.141632080078125,-5.4943084716796875
1712835200285062100,5.975062255859375,1.9838875532150269,0.3257761001586914,2.846118927001953
1712835200305028900,5.99502880859375,-0.5056555271148682,1.5333805084228516,9.195638656616211
1712835200324995300,6.014995361328125,-1.9598841667175293,1.4053125381469727,9.120391845703125
1712835200344962000,6.034962158203125,-6.101074695587158,5.0604143142700195,14.642407417297363
1712835200364928800,6.0549287109375,-1.7994394302368164,-1.0186209678649902,2.6306872367858887
1712835200384895500,6.0748955078125,-4.713772773742676,0.6447153091430664,0.2942981719970703
1712835200404862000,6.094862060546875,-4.742128372192383,0.6376810073852539,0.3056168556213379
1712835200424828700,6.11482861328125,4.140299320220947,0.3773641586303711,3.8489317893981934
1712835200444795400,6.13479541015625,2.161501169204712,1.2851238250732422,4.420928478240967
1712835200464762000,6.15476220703125,0.8575538396835327,0.7033662796020508,3.1289010047912598
1712835200484728800,6.174728759765625,-0.26540231704711914,-0.5918231010437012,1.850602149963379
1712835200504695000,6.194695068359375,-1.4934355020523071,-1.5073695182800293,0.1903080940246582
1712835200524662000,6.214662109375,-2.6921839714050293,-1.8240151405334473,-2.037353992462158
1712835200544628500,6.23462841796875,-2.5781071186065674,-2.245389461517334,-3.014089345932007
1712835200564595200,6.25459521484375,-1.322563886642456,-2.3279714584350586,-1.5236568450927734
1712835200584595200,6.27459521484375,-0.47372347116470337,-1.8988518714904785,0.574552059173584
1712835200604595200,6.29459521484375,-0.4604666233062744,-1.7908244132995605,0.9460887908935547
1712835200624595200,6.31459521484375,-1.0106111764907837,-1.679955005645752,0.8810958862304688
1712835200644595200,6.33459521484375,-1.0659195184707642,-1.690016746520996,0.9039764404296875
1712835200664595200,6.35459521484375,-1.513855218887329,-0.6133265495300293,-0.5626425743103027
1712835200684595200,6.37459521484375,-1.5411415100097656,-0.6717019081115723,-0.47698354721069336
1712835200704595200,6.39459521484375,-0.9286544322967529,-1.9917583465576172,-0.13849163055419922
1712835200724595000,6.414594970703125,-1.0760443210601807,-2.1471128463745117,0.10290908813476562
1712835200744595000,6.434594970703125,-1.0335705280303955,-2.2883758544921875,-0.6196498870849609
1712835200764561700,6.454561767578125,-0.8761438131332397,-2.409452438354492,-0.45174407958984375
1712835200784528400,6.4745283203125,-0.9642601013183594,-2.198512554168701,-0.48716306686401367
1712835200804495000,6.4944951171875,-0.8147596716880798,-2.3241868019104004,-0.2815260887145996
1712835200824461600,6.514461669921875,-1.5221483707427979,-0.10164356231689453,-1.085742473602295
1712835200844428300,6.53442822265625,-3.504096031188965,3.3462867736816406,2.2296347618103027
1712835200864394800,6.554394775390625,-1.968558669090271,5.525809288024902,8.76513385772705
1712835200884361500,6.574361572265625,-1.8524668216705322,5.506330490112305,8.811003684997559
1712835200904328000,6.594327880859375,2.4330897331237793,4.916231155395508,14.622550964355469
1712835200924294700,6.614294677734375,0.023575961589813232,6.1969404220581055,11.257399559020996
1712835200944261400,6.634261474609375,-0.40187907218933105,6.113646507263184,4.568240642547607
1712835200964228000,6.65422802734375,-1.70145845413208,5.45565128326416,-1.1831672191619873
1712835200984195000,6.674195068359375,-5.89916467666626,3.161959648132324,-4.863368988037109
1712835201004161800,6.694161865234375,-6.495128631591797,3.492887496948242,-5.079361915588379
1712835201024128300,6.714128173828125,7.243256092071533,0.8801531791687012,-0.03475809097290039
1712835201044095000,6.734094970703125,-3.3643593788146973,3.9067883491516113,-7.525134086608887
1712835201064061700,6.754061767578125,-8.323945999145508,2.272799015045166,-11.987712860107422
1712835201084028400,6.7740283203125,-3.8812646865844727,0.31870460510253906,-6.769143581390381
1712835201103995100,6.7939951171875,-4.1683149337768555,0.532524585723877,-6.730879306793213
1712835201123962000,6.813962158203125,-3.0496561527252197,-2.859370470046997,-4.019990921020508
1712835201143928600,6.833928466796875,-4.877963542938232,-2.1612703800201416,-4.9642181396484375
1712835201163895300,6.853895263671875,-5.061931133270264,-2.0530316829681396,-4.8676438331604
1712835201183862000,6.873862060546875,-4.4070916175842285,-1.056854248046875,-4.954823970794678
1712835201203828700,6.893828857421875,-4.479562282562256,-0.46533870697021484,-4.591385841369629
1712835201223795200,6.913795166015625,-4.363470554351807,-0.5670871734619141,-4.618828296661377
1712835201243762000,6.933761962890625,-4.537042617797852,-1.7247052192687988,-2.6477646827697754
1712835201263728600,6.953728759765625,-4.99884033203125,-0.8931636810302734,-3.1514835357666016
1712835201283695400,6.9736953125,-4.55656623840332,-1.164625644683838,-3.2843823432922363
1712835201303662000,6.993662109375,-3.0878000259399414,0.7219491004943848,-4.06613302230835
1712835201323628500,7.013628662109375,-2.3321290016174316,0.33959341049194336,-4.1645965576171875
1712835201343595300,7.03359521484375,-0.7674801349639893,4.888392448425293,-5.5386576652526855
1712835201363595300,7.05359521484375,1.1922872066497803,1.9484343528747559,-1.2751507759094238
1712835201383595300,7.07359521484375,2.166071891784668,1.6414518356323242,-1.1105451583862305
1712835201403595300,7.09359521484375,-3.1317710876464844,2.3852853775024414,13.889867782592773
1712835201423595300,7.11359521484375,-2.2029714584350586,1.9468803405761719,15.972091674804688
1712835201443595300,7.13359521484375,0.40186744928359985,-0.05200672149658203,7.55258321762085
1712835201463595300,7.15359521484375,-1.241447925567627,1.043914794921875,2.0743565559387207
1712835201483595500,7.173595458984375,0.9466041326522827,-0.3333578109741211,2.9727840423583984
1712835201503595500,7.193595458984375,1.7663602828979492,0.26606082916259766,4.127501010894775
1712835201523595500,7.213595458984375,1.5081838369369507,1.281447410583496,2.3920135498046875
1712835201543595500,7.233595458984375,1.159531831741333,0.9108390808105469,0.4541501998901367
1712835201563595500,7.253595458984375,-0.2316868156194687,-0.5814089775085449,-0.04379463195800781
1712835201583595300,7.27359521484375,-1.9777275323867798,-2.133488655090332,-1.6131179332733154
1712835201603595300,7.29359521484375,-2.1953516006469727,-2.0150985717773438,-1.7539865970611572
1712835201623595500,7.313595458984375,-3.0857534408569336,-2.4769668579101562,-2.0371248722076416
1712835201643595500,7.333595458984375,-2.216092824935913,-1.5649471282958984,-0.3828907012939453
1712835201663595500,7.353595458984375,-1.175633192062378,-1.0211539268493652,1.2652029991149902
1712835201683595500,7.373595458984375,-1.075751781463623,-1.0141515731811523,1.2413058280944824
1712835201703595500,7.393595458984375,-1.0661349296569824,-1.2784652709960938,1.7914676666259766
1712835201723595300,7.41359521484375,-1.6020927429199219,-1.733642578125,-0.4480147361755371
1712835201743595300,7.43359521484375,-0.9101083278656006,-1.4997849464416504,-1.312981128692627
1712835201763595300,7.45359521484375,-0.4982396364212036,-1.2875347137451172,-1.540860652923584
1712835201783595300,7.47359521484375,-0.4239996671676636,-1.7623391151428223,-1.7657053470611572
1712835201803595300,7.49359521484375,-0.30840325355529785,-1.860642910003662,-1.6253178119659424
1712835201823595300,7.51359521484375,-0.5288041234016418,-1.68133544921875,-1.5201215744018555
1712835201843595300,7.53359521484375,-0.4906713366508484,-0.5905303955078125,-1.4344534873962402
1712835201863595300,7.55359521484375,-1.5708218812942505,-0.5786056518554688,-0.971355676651001
1712835201883595300,7.57359521484375,-1.7541611194610596,0.23085308074951172,1.9848718643188477
1712835201903595800,7.593595703125,-4.136944770812988,3.9276981353759766,5.846902370452881
1712835201923595800,7.613595703125,-4.017864227294922,3.8852357864379883,5.94770622253418
1712835201943595800,7.633595703125,6.862150192260742,2.070150375366211,16.803516387939453
1712835201963595800,7.653595703125,6.5302629470825195,2.127470016479492,16.66033935546875
1712835201983596000,7.673595947265625,3.6091408729553223,3.8949804306030273,12.897500991821289
1712835202003596000,7.693595947265625,-0.35722362995147705,4.233163833618164,-3.197394371032715
1712835202023596000,7.713595947265625,-2.0174221992492676,3.147965431213379,-3.153094530105591
1712835202043596000,7.733595947265625,-3.2188808917999268,2.3002452850341797,-4.519054412841797
1712835202063596000,7.753595947265625,0.9179019927978516,5.036880016326904,-1.9793994426727295
1712835202083595800,7.773595703125,0.29015016555786133,5.337708950042725,-1.975005865097046
1712835202103595800,7.793595703125,-1.5157053470611572,0.9755473136901855,-4.159489154815674
1712835202123596000,7.813595947265625,-4.7828545570373535,0.8010697364807129,-6.794247627258301
1712835202143596000,7.833595947265625,-4.880264759063721,-0.19607830047607422,-5.769157886505127
1712835202163596000,7.853595947265625,-4.804191589355469,-0.5082182884216309,-3.4782869815826416
1712835202183596000,7.873595947265625,-4.892782211303711,-0.34255361557006836,-3.5867793560028076
1712835202203596000,7.893595947265625,-4.129283428192139,-0.6795234680175781,-1.6608006954193115
1712835202223595800,7.913595703125,-4.437252998352051,-1.4083914756774902,-2.1790459156036377
1712835202243595800,7.933595703125,-4.402073860168457,-0.7918357849121094,-3.8052902221679688
1712835202263595800,7.953595703125,-4.7009382247924805,-0.6944398880004883,-3.980787992477417
1712835202283595800,7.973595703125,-4.586047172546387,-0.8265142440795898,-3.9548275470733643
1712835202303595800,7.993595703125,-3.342256546020508,-0.37389564514160156,-3.4709761142730713
1712835202323595800,8.013595703125,-2.6261003017425537,0.3262805938720703,-3.968687057495117
1712835202343595800,8.033595703125,-2.1194851398468018,0.07154321670532227,-4.147547245025635
1712835202363595800,8.053595703125,-1.4720594882965088,-0.2205972671508789,-4.261929035186768
1712835202383595800,8.073595703125,-0.37693333625793457,6.406539440155029,-4.181502819061279
1712835202403595800,8.093595703125,0.44352245330810547,6.090176105499268,-4.194096565246582
1712835202423595800,8.113595703125,2.3260879516601562,3.4594364166259766,-2.3460941314697266
1712835202443595800,8.133595703125,0.2785038352012634,0.8419523239135742,8.095451354980469
1712835202463595800,8.153595703125,-1.721663236618042,2.217836380004883,9.24447250366211
1712835202483596000,8.173595947265625,-3.0881268978118896,1.5424394607543945,7.466265678405762
1712835202503595500,8.193595458984374,-2.7579562664031982,-0.36528873443603516,3.6492481231689453
1712835202523595500,8.213595458984376,0.04676087200641632,0.1695718765258789,2.5287575721740723
1712835202543595500,8.233595458984375,5.224143028259277,0.053558349609375,4.092225074768066
1712835202563595500,8.253595458984375,2.358189821243286,0.6823024749755859,4.19420051574707
1712835202583595300,8.27359521484375,0.09108312427997589,1.246932029724121,3.187816619873047
1712835202603595300,8.29359521484375,-0.08533435314893723,0.378631591796875,2.2101712226867676
1712835202623595500,8.313595458984375,-0.8122678399085999,-0.8262557983398438,0.8666024208068848
1712835202643595500,8.333595458984375,-2.2184104919433594,-1.681312084197998,-1.4190399646759033
1712835202663595500,8.353595458984374,-2.751704216003418,-2.613255500793457,-3.258693218231201
1712835202683595500,8.373595458984376,-2.0483295917510986,-3.0668091773986816,-2.9239158630371094
1712835202703595500,8.393595458984375,-1.0965081453323364,-2.2448177337646484,-1.3726048469543457
1712835202723595300,8.41359521484375,-0.4662529528141022,-1.1785526275634766,-0.18382644653320312
1712835202743595300,8.43359521484375,-0.43022504448890686,-1.174032211303711,-0.19474506378173828
1712835202763595300,8.45359521484375,-1.0700550079345703,-0.9911184310913086,-0.0753474235534668
1712835202783595300,8.47359521484375,-1.050112009048462,-1.0575485229492188,0.021359920501708984
1712835202803595300,8.49359521484375,-0.987379252910614,-1.5082979202270508,-0.5019254684448242
1712835202823595300,8.51359521484375,-0.557745099067688,-2.3599953651428223,-0.5990080833435059
1712835202843595300,8.53359521484375,-0.8135446310043335,-2.558835029602051,-0.5762491226196289
1712835202863595300,8.55359521484375,-1.5008336305618286,-2.377702236175537,-0.6218414306640625
1712835202883595300,8.57359521484375,-1.630595088005066,-1.083691120147705,-0.2612128257751465
1712835202903595300,8.59359521484375,-1.9970768690109253,-0.12941265106201172,-0.3245854377746582
1712835202923595300,8.61359521484375,-1.7967242002487183,-0.20750045776367188,-0.16313505172729492
1712835202943595300,8.63359521484375,-2.330146312713623,2.6434144973754883,5.587088108062744
1712835202963595300,8.65359521484375,0.06625276803970337,3.4554290771484375,11.67528247833252
1712835202983595500,8.673595458984375,4.8534626960754395,1.5770492553710938,12.30636215209961
1712835203003595500,8.693595458984374,4.629436016082764,1.6196174621582031,12.19139289855957
1712835203023595500,8.713595458984376,2.6210930347442627,3.465285301208496,10.987706184387207
1712835203043595500,8.733595458984375,0.19316065311431885,5.236567497253418,0.9442553520202637
1712835203063595500,8.753595458984375,-0.4843611717224121,5.483424186706543,0.6747870445251465
1712835203083595300,8.77359521484375,-2.664938449859619,4.528170108795166,-0.811793327331543
1712835203103595300,8.79359521484375,5.942044258117676,3.031172275543213,2.234187602996826
1712835203123595500,8.813595458984375,-0.355175256729126,3.9652748107910156,-6.271812438964844
1712835203143595500,8.833595458984375,-1.0892760753631592,4.274121284484863,-6.135862350463867
1712835203163595500,8.853595458984374,-6.164754390716553,2.0745205879211426,-7.992536544799805
1712835203183595500,8.873595458984376,-6.112082004547119,-0.21919584274291992,-6.189370155334473
1712835203203595500,8.893595458984375,-4.594602584838867,-1.6278753280639648,-4.443324089050293
1712835203223595300,8.91359521484375,-4.772985935211182,-3.1504311561584473,-6.2364606857299805
1712835203243595300,8.93359521484375,-5.1059160232543945,-3.126051902770996,-5.846426010131836
1712835203263595300,8.95359521484375,-3.7463977336883545,-1.8455400466918945,-8.588735580444336
1712835203283595300,8.97359521484375,-3.844467878341675,-2.014157295227051,-8.150773048400879
1712835203303595300,8.99359521484375,-3.308478593826294,0.7477254867553711,-6.0955705642700195
1712835203323595300,9.01359521484375,-3.096492052078247,0.48858165740966797,-5.9805006980896
1712835203343595300,9.03359521484375,-2.855393648147583,3.499025821685791,3.970569372177124
1712835203363595300,9.05359521484375,0.2576327323913574,0.09748983383178711,5.845733165740967
1712835203383595300,9.07359521484375,-3.1149065494537354,1.0710954666137695,5.585263252258301
1712835203403595300,9.09359521484375,-2.822927713394165,0.8362598419189453,5.657424449920654
1712835203423595300,9.11359521484375,-3.064098834991455,1.6106185913085938,4.788496971130371
1712835203443595300,9.13359521484375,0.2789273262023926,0.06301403045654297,5.793469429016113
1712835203463595300,9.15359521484375,1.2435283660888672,-0.31204891204833984,8.448579788208008
1712835203483595500,9.173595458984375,4.226821422576904,-0.8361916542053223,7.815586566925049
1712835203503595500,9.193595458984374,4.981487274169922,-1.4679527282714844,3.345348834991455
1712835203523595500,9.213595458984376,5.136724472045898,-1.459686279296875,3.158172130584717
1712835203543595500,9.233595458984375,3.9639816284179688,-0.6020526885986328,-1.3537907600402832
1712835203563595500,9.253595458984375,-1.569305181503296,-0.2222309112548828,-7.468426704406738
1712835203583595300,9.27359521484375,5.770676136016846,-1.654832363128662,-8.431102752685547
1712835203603595300,9.29359521484375,5.788707733154297,-1.7882342338562012,-8.121621131896973
1712835203623595500,9.313595458984375,-7.663527965545654,11.303848266601562,0.2644777297973633
1712835203643595500,9.333595458984375,2.960097551345825,7.339995384216309,18.09275245666504
1712835203663595500,9.353595458984374,3.043875217437744,7.399015426635742,17.835575103759766
1712835203683595500,9.373595458984376,-3.7863452434539795,-3.994537830352783,13.618789672851562
1712835203703595500,9.393595458984375,-4.064284801483154,-3.8843979835510254,13.616020202636719
1712835203723595300,9.41359521484375,3.3644161224365234,-0.3180809020996094,4.321773529052734
1712835203743595300,9.43359521484375,0.6931052207946777,2.470248222351074,-3.7225115299224854
1712835203763595300,9.45359521484375,-0.9221796989440918,5.665460109710693,-12.652170181274414
1712835203783595300,9.47359521484375,-4.389120101928711,2.817689895629883,-14.525128364562988
1712835203803595300,9.49359521484375,-4.397049427032471,2.894404888153076,-14.742456436157227
1712835203823595300,9.51359521484375,-6.8677520751953125,0.1412200927734375,-3.5421764850616455
1712835203843595300,9.53359521484375,-3.6552319526672363,-1.8282594680786133,10.178693771362305
1712835203863595300,9.55359521484375,-1.7587826251983643,-3.6916744709014893,1.9172592163085938
1712835203883595300,9.57359521484375,-0.6584663391113281,-1.6342978477478027,-7.102972030639648
1712835203903595300,9.59359521484375,-5.551904678344727,-0.4411506652832031,-17.734704971313477
1712835203923595300,9.61359521484375,-6.108307838439941,-0.7541632652282715,-16.7789363861084
1712835203943595300,9.63359521484375,-7.763713359832764,0.4425053596496582,-7.800994873046875
1712835203963595300,9.65359521484375,-4.159553527832031,0.4367556571960449,-0.1294858455657959
1712835203983595500,9.673595458984375,0.4494600296020508,3.605527877807617,7.288745403289795
1712835204003595500,9.693595458984374,6.004889011383057,-0.9024519920349121,12.23666763305664
1712835204023595500,9.713595458984376,6.002398490905762,-0.9110465049743652,12.257238388061523
1712835204043595500,9.733595458984375,1.431811809539795,1.812638282775879,11.33460521697998
1712835204063595500,9.753595458984375,6.052710056304932,3.7178092002868652,4.054304599761963
1712835204083595300,9.77359521484375,5.784748554229736,3.809091091156006,4.217119216918945
1712835204103595300,9.79359521484375,-2.151947498321533,2.553661346435547,1.5567626953125
1712835204123595500,9.813595458984375,-2.3946638107299805,2.715632915496826,1.5759248733520508
1712835204143595500,9.833595458984375,-2.090203285217285,1.5957322120666504,1.5520048141479492
1712835204163595500,9.853595458984374,-0.7938699722290039,2.4881820678710938,2.650655508041382
1712835204183595500,9.873595458984376,1.0711970329284668,-3.284865140914917,1.7015931606292725
1712835204203595500,9.893595458984375,-3.593895673751831,0.7923636436462402,3.6303863525390625
1712835204223595300,9.91359521484375,-8.780543327331543,0.4274578094482422,-5.089145660400391
1712835204243595300,9.93359521484375,-7.950037002563477,-1.6888747215270996,-9.921760559082031
1712835204263595300,9.95359521484375,-8.622589111328125,-0.8888721466064453,-5.87912654876709
1712835204283595300,9.97359521484375,-1.5289130210876465,-1.248713493347168,-3.7849981784820557
1712835204303595300,9.99359521484375,1.7129688262939453,-1.6991429328918457,-3.962061882019043
1712835204323595300,10.01359521484375,-1.4062352180480957,-1.7688918113708496,-10.42782974243164
1712835204343595300,10.03359521484375,-0.619805097579956,-2.058708667755127,-10.701104164123535
1712835204363595300,10.05359521484375,-0.49394655227661133,3.6313252449035645,-6.936520576477051
1712835204383595300,10.07359521484375,-6.238077163696289,4.691961288452148,4.952996253967285
1712835204403595300,10.09359521484375,2.7815563678741455,3.4404754638671875,19.422609329223633
1712835204423595300,10.11359521484375,6.0254364013671875,-1.1389822959899902,14.02820110321045
1712835204443595300,10.13359521484375,6.18936824798584,-1.2425274848937988,14.193304061889648
1712835204463595300,10.15359521484375,0.881279706954956,1.7820663452148438,-0.9437742233276367
1712835204483595500,10.173595458984375,0.9154602289199829,1.7564773559570312,-0.9000034332275391
1712835204503595500,10.193595458984374,1.4000779390335083,0.4581031799316406,5.371195316314697
1712835204523595500,10.213595458984376,1.4747254848480225,0.5079050064086914,5.286681175231934
1712835204543595500,10.233595458984375,1.1211239099502563,-0.8257603645324707,4.1422905921936035
1712835204563595500,10.253595458984375,0.9048493504524231,-0.7162880897521973,3.9673595428466797
1712835204583595300,10.27359521484375,-0.4553355574607849,-0.8972039222717285,2.2003064155578613
1712835204603595300,10.29359521484375,-2.4212677478790283,-1.327852725982666,-2.557023763656616
1712835204623595500,10.313595458984375,-2.6643338203430176,-1.9491095542907715,-3.962271213531494
1712835204643595500,10.333595458984375,-1.9059053659439087,-2.4008498191833496,-3.875554084777832
1712835204663595500,10.353595458984374,-0.7075151205062866,-2.2559680938720703,-2.158665657043457
1712835204683595500,10.373595458984376,0.7601915597915649,-2.1659722328186035,0.01984119415283203
1712835204703595500,10.393595458984375,0.8490315675735474,-2.1899895668029785,0.034487247467041016
1712835204723595300,10.41359521484375,0.10725164413452148,-0.8009738922119141,1.1719918251037598
1712835204743595300,10.43359521484375,-0.8669729828834534,-0.8678417205810547,0.7721123695373535
1712835204763595300,10.45359521484375,-1.4151735305786133,-1.9182839393615723,0.8131017684936523
1712835204783595300,10.47359521484375,-1.4381885528564453,-2.973560333251953,0.8090462684631348
1712835204803595300,10.49359521484375,-1.7742931842803955,-3.310408115386963,-0.3444089889526367
1712835204823595300,10.51359521484375,-1.6173176765441895,-3.4931282997131348,-0.9376335144042969
1712835204843595300,10.53359521484375,-0.40060925483703613,-3.0969176292419434,-0.5330219268798828
1712835204863595300,10.55359521484375,-0.5682986378669739,-2.007662773132324,-2.3705387115478516
1712835204883595300,10.57359521484375,-1.2242584228515625,-0.20293903350830078,-3.625977039337158
1712835204903595300,10.59359521484375,-2.6711649894714355,2.264214515686035,0.540318489074707
1712835204923595300,10.61359521484375,-2.0862324237823486,4.329938888549805,8.129483222961426
1712835204943595300,10.63359521484375,4.226454734802246,4.385920524597168,15.738692283630371
1712835204963595300,10.65359521484375,4.293301582336426,4.396698951721191,15.727897644042969
1712835204983595500,10.673595458984375,0.6693717241287231,5.705083847045898,14.500242233276367
1712835205003595500,10.693595458984374,-0.7617008686065674,6.393049240112305,6.023094177246094
1712835205023595500,10.713595458984376,-2.674192428588867,5.282787322998047,-2.330364942550659
1712835205043595500,10.733595458984375,-4.574351787567139,2.788473129272461,-5.954779148101807
1712835205063595500,10.753595458984375,6.423042297363281,5.166640281677246,-1.2091865539550781
1712835205083595300,10.77359521484375,5.880204677581787,0.986544132232666,0.983515739440918
1712835205103595300,10.79359521484375,-2.358503818511963,1.084465503692627,-5.2462358474731445
1712835205123595500,10.813595458984375,-6.805279731750488,0.4511537551879883,-11.127893447875977
1712835205143595500,10.833595458984375,-3.916813373565674,-0.8423757553100586,-9.3679838180542
1712835205163595500,10.853595458984374,-3.0885510444641113,-0.43994617462158203,-4.469335556030273
1712835205183595500,10.873595458984376,-3.1697146892547607,-1.5028257369995117,-3.246572494506836
1712835205203595500,10.893595458984375,-4.143673419952393,-2.279290199279785,-5.06757116317749
1712835205223595300,10.91359521484375,-6.051493167877197,-1.1494927406311035,-5.03546667098999
1712835205243595300,10.93359521484375,-5.949179172515869,-1.2551946640014648,-4.990406036376953
1712835205263595300,10.95359521484375,-5.326615810394287,-0.9934902191162109,-2.7596776485443115
1712835205283595300,10.97359521484375,-2.5333683490753174,-1.1244549751281738,-2.4720852375030518
1712835205303595300,10.99359521484375,-2.035966157913208,-0.5247917175292969,-3.8781566619873047
1712835205323595300,11.01359521484375,-1.4086663722991943,-0.7603640556335449,-3.9570765495300293
1712835205343595300,11.03359521484375,-1.2726589441299438,2.7199177742004395,-5.996211051940918
1712835205363595300,11.05359521484375,0.56965172290802,3.140727996826172,-3.3062944412231445
1712835205383595300,11.07359521484375,-0.8584871292114258,2.6535863876342773,9.390811920166016
1712835205403595300,11.09359521484375,5.001498222351074,0.7194442749023438,14.786443710327148
1712835205423595300,11.11359521484375,5.51975154876709,0.6464262008666992,14.96175765991211
1712835205443595300,11.13359521484375,2.918910026550293,1.2283439636230469,10.731149673461914
1712835205463595300,11.15359521484375,-2.6956660747528076,0.07227134704589844,2.723552703857422
1712835205483595500,11.173595458984375,0.40279677510261536,-1.0853118896484375,3.5154900550842285
1712835205503595500,11.193595458984374,0.32402941584587097,-1.0217809677124023,3.3849282264709473
1712835205523595500,11.213595458984376,1.316100835800171,-0.6411404609680176,2.146937847137451
1712835205543595500,11.233595458984375,-0.024144262075424194,-0.5893511772155762,0.4277195930480957
1712835205563595500,11.253595458984375,-0.42464083433151245,-1.2705836296081543,-0.27620410919189453
1712835205583595300,11.27359521484375,-0.6742972731590271,-1.1806254386901855,-0.4146537780761719
1712835205603595300,11.29359521484375,-1.5070016384124756,-2.7613954544067383,-1.5888469219207764
1712835205623595500,11.313595458984375,-1.777509331703186,-2.46848726272583,-2.6812522411346436
1712835205643595500,11.333595458984375,-1.3252089023590088,-1.7451400756835938,-2.0354628562927246
1712835205663595500,11.353595458984374,-1.0623531341552734,-1.6331639289855957,-0.4191884994506836
1712835205683595500,11.373595458984376,-0.8176476359367371,-1.553004264831543,0.817143440246582
1712835205703595500,11.393595458984375,-0.6376049518585205,-1.4737825393676758,0.9487900733947754
1712835205723595300,11.41359521484375,-0.3959444761276245,-1.7786970138549805,0.7436380386352539
1712835205743595300,11.43359521484375,-0.455264687538147,-2.6521215438842773,0.6849451065063477
1712835205763595300,11.45359521484375,-0.4229758381843567,-3.437476634979248,0.7200965881347656
1712835205783595300,11.47359521484375,-0.3136790096759796,-3.5344185829162598,0.8908205032348633
1712835205803595300,11.49359521484375,-0.8433941602706909,-2.398740291595459,0.12131547927856445
1712835205823595300,11.51359521484375,-1.0810956954956055,-1.5221514701843262,0.25057268142700195
1712835205843595300,11.53359521484375,-0.7575957775115967,-0.6095895767211914,0.6894736289978027
1712835205863595300,11.55359521484375,-0.6043367385864258,-0.6806659698486328,0.8633971214294434
1712835205883595300,11.57359521484375,-3.0961825847625732,3.9415512084960938,4.149624824523926
1712835205903595300,11.59359521484375,-0.5887385010719299,4.851986885070801,9.487727165222168
1712835205923595300,11.61359521484375,2.7122786045074463,4.585933685302734,13.621353149414062
1712835205943595300,11.63359521484375,2.5644173622131348,4.62690544128418,13.493937492370605
1712835205963595300,11.65359521484375,3.653655529022217,4.6294708251953125,14.620658874511719
1712835205983595500,11.673595458984375,0.6070667505264282,5.299556732177734,8.952722549438477
1712835206003595500,11.693595458984374,-0.39469271898269653,4.923250198364258,-1.720513105392456
1712835206023595500,11.713595458984376,-2.993913173675537,4.470180511474609,-6.435564994812012
1712835206043595500,11.733595458984375,2.211060047149658,3.314581871032715,-5.051337242126465
1712835206063595500,11.753595458984375,7.482305526733398,1.3878059387207031,1.143686294555664
1712835206083595300,11.77359521484375,6.77416467666626,1.709620475769043,1.1283540725708008
1712835206103595300,11.79359521484375,-8.459352493286133,1.1055374145507812,-9.142916679382324
1712835206123595500,11.813595458984375,-8.79189682006836,1.2828636169433594,-9.105374336242676
1712835206143595500,11.833595458984375,-3.2724008560180664,-1.931136131286621,-2.128169536590576
1712835206163595500,11.853595458984374,-3.1555874347686768,-3.657437801361084,-3.113464832305908
1712835206183595500,11.873595458984376,-4.433017730712891,-3.065279960632324,-5.019014835357666
1712835206203595500,11.893595458984375,-5.322493076324463,-2.746762990951538,-6.806134223937988
1712835206223595300,11.91359521484375,-4.737558364868164,-2.4635658264160156,-7.39152717590332
1712835206243595300,11.93359521484375,-3.3389031887054443,-0.3058805465698242,-5.562743663787842
1712835206263595300,11.95359521484375,-3.067094564437866,-0.4675874710083008,-5.615278720855713
1712835206283595300,11.97359521484375,-1.2826731204986572,0.5355973243713379,-4.537970542907715
1712835206303595300,11.99359521484375,-0.26676511764526367,0.894899845123291,-3.906503200531006
1712835206323595300,12.01359521484375,2.4544763565063477,4.5302252769470215,-3.2697818279266357
1712835206343595300,12.03359521484375,2.1848368644714355,0.11789417266845703,-1.1751580238342285
1712835206363595300,12.05359521484375,-3.135698080062866,-0.4588146209716797,3.2293553352355957
1712835206383595300,12.07359521484375,-2.7144460678100586,3.238898277282715,9.851762771606445
1712835206403595300,12.09359521484375,-1.8348318338394165,1.5627021789550781,8.815786361694336
1712835206423595300,12.11359521484375,-1.2465113401412964,-0.4963197708129883,3.8212170600891113
1712835206443595300,12.13359521484375,-1.1846179962158203,-0.5698719024658203,3.9452600479125977
1712835206463595300,12.15359521484375,-1.1134321689605713,-0.22218799591064453,2.004037380218506
1712835206483595500,12.173595458984375,5.494871616363525,0.19895458221435547,3.8808536529541016
1712835206503595500,12.193595458984374,2.0882246494293213,1.6074724197387695,3.6817221641540527
1712835206523595500,12.213595458984376,0.9518700838088989,0.9791698455810547,2.7449378967285156
1712835206543595500,12.233595458984375,0.7930597066879272,-0.21926021575927734,1.730421543121338
1712835206563595500,12.253595458984375,0.5685466527938843,-0.12188720703125,1.582413673400879
1712835206583595300,12.27359521484375,-3.194000005722046,-1.7827744483947754,-1.6411933898925781
1712835206603595300,12.29359521484375,-4.112160682678223,-2.404959201812744,-2.606785774230957
1712835206623595500,12.313595458984375,-4.137463092803955,-2.353097438812256,-2.6780619621276855
1712835206643595500,12.333595458984375,-0.8769481182098389,-2.651449203491211,0.8449001312255859
1712835206663595500,12.353595458984374,0.3004695177078247,-2.5935306549072266,2.1102752685546875
1712835206683595500,12.373595458984376,0.0369226336479187,-2.013578414916992,1.1523165702819824
1712835206703595500,12.393595458984375,-0.7295971512794495,-1.1240215301513672,-0.5592236518859863
1712835206723595300,12.41359521484375,-0.9798568487167358,-0.8783864974975586,-1.382068157196045
1712835206743595300,12.43359521484375,-0.8929840326309204,-1.5235905647277832,-1.7820980548858643
1712835206763595300,12.45359521484375,-0.6987881660461426,-2.1008400917053223,-1.5134422779083252
1712835206783595300,12.47359521484375,-0.6447532176971436,-2.475861072540283,-0.6352748870849609
1712835206803595300,12.49359521484375,-1.0248528718948364,-2.5408711433410645,0.6841268539428711
1712835206823595300,12.51359521484375,-0.9220378398895264,-3.0607666969299316,1.2650642395019531
1712835206843595300,12.53359521484375,-1.274688720703125,-2.084216594696045,1.9876785278320312
1712835206863595300,12.55359521484375,-1.4271866083145142,0.0954132080078125,2.267167568206787
1712835206883595300,12.57359521484375,-2.0135226249694824,3.3181228637695312,3.0154709815979004
1712835206903595300,12.59359521484375,-0.7487359046936035,4.604864120483398,7.39636754989624
1712835206923595300,12.61359521484375,-0.744412899017334,4.598409652709961,7.410384178161621
1712835206943595300,12.63359521484375,4.910898685455322,3.0591249465942383,13.633649826049805
1712835206963595300,12.65359521484375,2.616550922393799,3.6864280700683594,9.911067008972168
1712835206983595500,12.673595458984375,0.5154436230659485,4.062256813049316,1.4168267250061035
1712835207003595500,12.693595458984374,-0.12421989440917969,4.257129669189453,1.231813907623291
1712835207023595500,12.713595458984376,-0.83519446849823,3.4151926040649414,-4.197532653808594
1712835207043595500,12.733595458984375,-1.3549779653549194,3.676126003265381,-4.366647720336914
1712835207063595500,12.753595458984375,6.699472904205322,4.315920829772949,-3.3299107551574707
1712835207083595300,12.77359521484375,4.983974456787109,0.10467863082885742,-0.7442927360534668
1712835207103595300,12.79359521484375,4.278330326080322,0.34145545959472656,-0.4830799102783203
1712835207123595500,12.813595458984375,-6.686361789703369,1.7336750030517578,-9.721090316772461
1712835207143595500,12.833595458984375,-6.942981243133545,1.8719797134399414,-9.632963180541992
1712835207163595500,12.853595458984374,-5.5308451652526855,-1.3141050338745117,-0.9447119235992432
1712835207183595500,12.873595458984376,-5.526764392852783,-1.1639652252197266,-1.160165548324585
1712835207203595500,12.893595458984375,-4.814411163330078,-2.6196370124816895,0.606809139251709
1712835207223595300,12.91359521484375,-4.794581890106201,-2.61997127532959,0.5854191780090332
1712835207243595300,12.93359521484375,-5.92670202255249,-1.9243273735046387,-3.006105422973633
1712835207263595300,12.95359521484375,-4.590221405029297,-1.6181254386901855,-4.135314464569092
1712835207283595300,12.97359521484375,-2.0463318824768066,-1.1296954154968262,-4.330733299255371
1712835207303595300,12.99359521484375,0.10145711898803711,-0.6529984474182129,-4.281067848205566
1712835207323595300,13.01359521484375,-0.9114153385162354,1.023935317993164,-5.834569931030273
1712835207343595300,13.03359521484375,-0.8919157981872559,5.629297256469727,-8.307929992675781
1712835207363595300,13.05359521484375,0.021727800369262695,5.319767951965332,-8.365310668945312
1712835207383595300,13.07359521484375,-2.7079665660858154,0.9631795883178711,3.1103734970092773
1712835207403595300,13.09359521484375,-1.8082075119018555,0.7749710083007812,3.2300190925598145
1712835207423595300,13.11359521484375,-1.7904653549194336,2.2860546112060547,15.365762710571289
1712835207443595300,13.13359521484375,1.1665451526641846,2.9908151626586914,6.332546234130859
1712835207463595300,13.15359521484375,2.3085391521453857,1.7871065139770508,1.893765926361084
1712835207483595500,13.173595458984375,2.332137107849121,0.7398872375488281,3.807220458984375
1712835207503595500,13.193595458984374,1.2276277542114258,0.5239057540893555,5.319144248962402
1712835207523595500,13.213595458984376,0.9074947834014893,0.02608966827392578,5.507767200469971
1712835207543595500,13.233595458984375,0.5886331796646118,-0.5223350524902344,3.77449369430542
1712835207563595500,13.253595458984375,-0.9820868968963623,-0.7322840690612793,1.2692747116088867
1712835207583595300,13.27359521484375,-2.5852432250976562,-0.8987288475036621,-1.4927136898040771
1712835207603595300,13.29359521484375,-2.849830150604248,-0.7863240242004395,-1.6449224948883057
1712835207623595500,13.313595458984375,-2.672560214996338,-2.3500099182128906,-3.0325355529785156
1712835207643595500,13.333595458984375,-2.2471837997436523,-2.3930301666259766,-1.552018642425537
1712835207663595500,13.353595458984374,-1.04225492477417,-2.011507987976074,0.16292524337768555
1712835207683595500,13.373595458984376,0.14288562536239624,-1.7461028099060059,1.17478609085083
1712835207703595500,13.393595458984375,0.19499748945236206,-1.1536750793457031,0.7054915428161621
1712835207723595300,13.41359521484375,-0.09470850229263306,-0.9739990234375,-0.7769694328308105
1712835207743595300,13.43359521484375,-0.5415981411933899,-1.5022039413452148,-1.4279913902282715
1712835207763595300,13.45359521484375,-0.5453013777732849,-1.601963996887207,-1.2772936820983887
1712835207783595300,13.47359521484375,-0.8301740884780884,-2.174252986907959,-1.353586196899414
1712835207803595300,13.49359521484375,-1.0758692026138306,-1.9786419868469238,-1.2152607440948486
1712835207823595300,13.51359521484375,-0.9188181161880493,-2.088042736053467,-1.038191556930542
1712835207843595300,13.53359521484375,-0.657566249370575,0.0967569351196289,0.29509496688842773
1712835207863595300,13.55359521484375,-0.4958626627922058,-0.0042247772216796875,0.4868330955505371
1712835207883595300,13.57359521484375,-1.3129479885101318,1.6739778518676758,2.097719669342041
1712835207903595300,13.59359521484375,-3.2758145332336426,2.9789772033691406,5.934483528137207
1712835207923595300,13.61359521484375,-0.45162394642829895,3.6870508193969727,13.08609390258789
1712835207943595300,13.63359521484375,-0.5112093687057495,3.6928205490112305,13.068370819091797
1712835207963595300,13.65359521484375,4.198667526245117,2.6359128952026367,10.488219261169434
1712835207983595500,13.673595458984375,3.6198947429656982,2.7554588317871094,10.281172752380371
1712835208003595500,13.693595458984374,-1.8483192920684814,4.97282600402832,4.623866558074951
1712835208023595500,13.713595458984376,-0.9415256977081299,3.1326370239257812,-2.13696026802063
1712835208043595500,13.733595458984375,-3.407944679260254,3.7965078353881836,-5.866728782653809
1712835208063595500,13.753595458984375,0.5575578212738037,4.303272247314453,-4.0661516189575195
1712835208083595300,13.77359521484375,7.674798011779785,1.2756037712097168,2.837606906890869
1712835208103595300,13.79359521484375,6.957135200500488,1.584249496459961,2.948549270629883
1712835208123595500,13.813595458984375,0.9131479263305664,-0.25136327743530273,-2.666353702545166
1712835208143595500,13.833595458984375,-6.149450302124023,0.43073415756225586,-7.479485511779785
1712835208163595500,13.853595458984374,-4.567748069763184,-0.9152970314025879,-1.936305284500122
1712835208183595500,13.873595458984376,-3.749128818511963,-2.2514214515686035,0.12327098846435547
1712835208203595500,13.893595458984375,-4.278395652770996,-2.44431471824646,-1.0690312385559082
1712835208223595300,13.91359521484375,-5.138318061828613,-1.7153730392456055,-3.1768064498901367
1712835208243595300,13.93359521484375,-5.200007915496826,-2.0660362243652344,-4.898144721984863
1712835208263595300,13.95359521484375,-5.195688247680664,-2.124931812286377,-4.832036972045898
1712835208283595300,13.97359521484375,-2.7160227298736572,-0.3530278205871582,-4.656642913818359
1712835208303595300,13.99359521484375,-2.395707368850708,-0.5508718490600586,-4.743066787719727
1712835208323595300,14.01359521484375,-0.6066737174987793,0.17325925827026367,-4.372025012969971
1712835208343595300,14.03359521484375,-1.0130136013031006,4.082121849060059,-4.622572422027588
1712835208363595300,14.05359521484375,0.8001959323883057,4.971255302429199,-5.304474830627441
1712835208383595300,14.07359521484375,1.9356260299682617,0.31798791885375977,-1.0269489288330078
1712835208403595300,14.09359521484375,2.799069404602051,0.05173969268798828,-0.9788551330566406
1712835208423595300,14.11359521484375,-1.296431064605713,1.104283332824707,10.219472885131836
1712835208443595300,14.13359521484375,-2.544029712677002,1.6263437271118164,8.028213500976562
1712835208463595300,14.15359521484375,-2.3749945163726807,1.5153236389160156,8.19163703918457
1712835208483595500,14.173595458984375,-1.6854419708251953,0.4156618118286133,3.7732858657836914
1712835208503595500,14.193595458984374,5.192288875579834,-0.24201488494873047,2.5918893814086914
1712835208523595500,14.213595458984376,4.389021873474121,-0.4342689514160156,5.090221405029297
1712835208543595500,14.233595458984375,4.434589862823486,-0.3918027877807617,5.018853187561035
1712835208563595500,14.253595458984375,-0.4505586624145508,0.800440788269043,3.1776485443115234
1712835208583595300,14.27359521484375,-0.6327519416809082,0.8846254348754883,3.0489296913146973
1712835208603595300,14.29359521484375,-1.203576922416687,-1.23065185546875,-0.9716029167175293
1712835208623595500,14.313595458984375,-2.5163981914520264,-1.9104204177856445,-2.5812997817993164
1712835208643595500,14.333595458984375,-2.473151683807373,-2.2739157676696777,-3.0020840167999268
1712835208663595500,14.353595458984374,-1.9363124370574951,-1.9175872802734375,-1.438218116760254
1712835208683595500,14.373595458984376,-1.269284725189209,-1.0675692558288574,0.498654842376709
1712835208703595500,14.393595458984375,-0.38391295075416565,-1.1634678840637207,1.356431484222412
1712835208723595300,14.41359521484375,-0.19780251383781433,-1.1487536430358887,1.2403292655944824
1712835208743595300,14.43359521484375,-0.05488401651382446,-1.0999808311462402,0.421112060546875
1712835208763595300,14.45359521484375,-0.2941729426383972,-1.3299717903137207,-0.47087955474853516
1712835208783595300,14.47359521484375,-0.3170033097267151,-1.410871982574463,-0.34682464599609375
1712835208803595300,14.49359521484375,-0.9587247967720032,-1.8424644470214844,-0.9425134658813477
1712835208823595300,14.51359521484375,-1.168170690536499,-1.7365918159484863,-0.5876326560974121
1712835208843595300,14.53359521484375,-1.025580644607544,-1.8507418632507324,-0.4104313850402832
1712835208863595300,14.55359521484375,-0.4984489977359772,-1.3904533386230469,0.18621015548706055
1712835208883595300,14.57359521484375,-0.2910011410713196,-0.7610406875610352,0.46974945068359375
1712835208903595300,14.59359521484375,-0.17575229704380035,-0.8590936660766602,0.6620364189147949
1712835208923595300,14.61359521484375,-3.885067939758301,2.906867027282715,4.033057689666748
1712835208943595300,14.63359521484375,-3.8149139881134033,2.8599510192871094,4.136240005493164
1712835208963595300,14.65359521484375,3.352797031402588,4.476381301879883,14.36490249633789
1712835208983595500,14.673595458984375,3.1773078441619873,4.517519950866699,14.273496627807617
1712835209003595500,14.693595458984374,0.9094635844230652,5.122138977050781,8.058813095092773
1712835209023595500,14.713595458984376,-0.051683664321899414,4.30573844909668,3.0085792541503906
1712835209043595500,14.733595458984375,-0.1987619400024414,4.6630401611328125,-0.23448753356933594
1712835209063595500,14.753595458984375,-1.5509707927703857,4.46119499206543,-2.558241367340088
1712835209083595300,14.77359521484375,-2.0818724632263184,4.76078462600708,-2.7474284172058105
1712835209103595300,14.79359521484375,-1.3860983848571777,1.649146556854248,-6.575139999389648
1712835209123595500,14.813595458984375,3.8729054927825928,-0.293027400970459,-1.9917237758636475
1712835209143595500,14.833595458984375,0.24042320251464844,-1.2856330871582031,-4.282482147216797
1712835209163595500,14.853595458984374,-4.972558975219727,0.5744037628173828,-9.347041130065918
1712835209183595500,14.873595458984376,-6.221517562866211,-0.9973020553588867,-8.433066368103027
1712835209203595500,14.893595458984375,-6.354846000671387,-0.8595099449157715,-8.469252586364746
1712835209223595300,14.91359521484375,-3.9814987182617188,-1.9026179313659668,-1.5804126262664795
1712835209243595300,14.93359521484375,-4.201532363891602,-2.48935604095459,-2.1447293758392334
1712835209263595300,14.95359521484375,-4.774775505065918,-2.298285961151123,-3.9707653522491455
1712835209283595300,14.97359521484375,-4.7084550857543945,-2.383849620819092,-3.931011438369751
1712835209303595300,14.99359521484375,-4.780574321746826,-1.1845393180847168,-6.485241889953613
1712835209323595300,15.01359521484375,-4.443904399871826,-1.3676300048828125,-6.589415550231934
1712835209343595300,15.03359521484375,-2.18855881690979,0.6357803344726562,-6.237124443054199
1712835209363595300,15.05359521484375,-1.530301809310913,4.3291850090026855,-6.5697245597839355
1712835209383595300,15.07359521484375,0.31871795654296875,7.700344562530518,-6.3867340087890625
1712835209403595300,15.09359521484375,1.118488073348999,7.366245269775391,-6.284856796264648
1712835209423595300,15.11359521484375,2.0901365280151367,3.0485620498657227,-1.9535632133483887
1712835209443595300,15.13359521484375,-1.4329230785369873,1.9310626983642578,10.541963577270508
1712835209463595300,15.15359521484375,-5.26460075378418,4.824941635131836,13.30165958404541
1712835209483595500,15.173595458984375,-5.062264919281006,4.749873161315918,13.445101737976074
1712835209503595500,15.193595458984374,-2.544464111328125,0.4914216995239258,4.391122817993164
1712835209523595500,15.213595458984376,-2.6052193641662598,0.4834175109863281,4.40547513961792
1712835209543595500,15.233595458984375,3.249434471130371,-0.12227249145507812,3.4749488830566406
1712835209563595500,15.253595458984375,3.2301223278045654,-0.07054615020751953,3.3759026527404785
1712835209583595300,15.27359521484375,1.023414134979248,1.075028419494629,3.1940670013427734
1712835209603595300,15.29359521484375,-0.06872531771659851,-0.09283256530761719,2.6855316162109375
1712835209623595500,15.313595458984375,-1.5945708751678467,-1.5772218704223633,1.0168547630310059
1712835209643595500,15.333595458984375,-2.9218952655792236,-2.0450148582458496,-0.8312606811523438
1712835209663595500,15.353595458984374,-2.7667438983917236,-2.406198501586914,-1.5669515132904053
1712835209683595500,15.373595458984376,-1.9861104488372803,-2.2528276443481445,-0.3675556182861328
1712835209703595500,15.393595458984375,-1.0134164094924927,-2.432806968688965,0.8462486267089844
1712835209723595300,15.41359521484375,-0.5420109033584595,-2.6765708923339844,1.179542064666748
1712835209743595300,15.43359521484375,-1.2000997066497803,-2.334165096282959,0.47397708892822266
1712835209763595300,15.45359521484375,-1.7050065994262695,-2.1696252822875977,-0.5289859771728516
1712835209783595300,15.47359521484375,-1.7251055240631104,-2.394598960876465,-1.1087965965270996
1712835209803595300,15.49359521484375,-1.738089919090271,-2.456483840942383,-1.0155186653137207
1712835209823595300,15.51359521484375,-1.2585628032684326,-2.5521388053894043,-0.8979711532592773
1712835209843595300,15.53359521484375,-0.5855445265769958,-2.122251510620117,-0.8870511054992676
1712835209863595300,15.55359521484375,-0.485470712184906,-2.2339134216308594,-0.7155022621154785
1712835209883595300,15.57359521484375,-0.8416423797607422,-1.7178945541381836,-0.2723369598388672
1712835209903595300,15.59359521484375,-0.697443962097168,-0.3606538772583008,0.14260435104370117
1712835209923595300,15.61359521484375,-0.534925639629364,-0.4620838165283203,0.32888126373291016
1712835209943595300,15.63359521484375,-2.3908302783966064,3.2144546508789062,3.2007908821105957
1712835209963595300,15.65359521484375,-1.6848070621490479,4.498976707458496,9.29101276397705
1712835209983595500,15.673595458984375,-1.6000864505767822,4.473391532897949,9.350433349609375
1712835210003595500,15.693595458984374,5.627110958099365,3.0237951278686523,15.193235397338867
1712835210023595500,15.713595458984376,2.5072638988494873,4.21319580078125,9.291910171508789
1712835210043595500,15.733595458984375,-1.9861211776733398,4.355303764343262,3.518641471862793
1712835210063595500,15.753595458984375,-2.6999247074127197,2.70229434967041,-2.274728298187256
1712835210083595300,15.77359521484375,-4.0903520584106445,2.429324150085449,-5.202535152435303
1712835210103595300,15.79359521484375,8.328560829162598,6.223832607269287,-1.6382241249084473
1712835210123595500,15.813595458984375,4.278777599334717,1.0743560791015625,-3.828700542449951
1712835210143595500,15.833595458984375,-4.332547187805176,3.6384196281433105,-10.51663589477539
1712835210163595500,15.853595458984374,-6.215932369232178,1.9032940864562988,-12.977635383605957
1712835210183595500,15.873595458984376,-4.566112041473389,-0.032763004302978516,-5.076627254486084
1712835210203595500,15.893595458984375,-5.26233434677124,-1.420854091644287,-0.13083171844482422
1712835210223595300,15.91359521484375,-5.062126159667969,-2.5926504135131836,-0.8588502407073975
1712835210243595300,15.93359521484375,-5.946415901184082,-1.9263181686401367,-1.1899423599243164
1712835210263595300,15.95359521484375,-5.990549087524414,-1.8824143409729004,-1.1942949295043945
1712835210283595300,15.97359521484375,-6.366528511047363,-2.3401942253112793,-4.184922218322754
1712835210303595300,15.99359521484375,-6.281628131866455,-2.4293293952941895,-4.16864013671875
1712835210323595300,16.01359521484375,-5.6724324226379395,-2.0348291397094727,-4.809212684631348
1712835210343595300,16.03359521484375,-4.4594526290893555,-1.521336555480957,-5.190831661224365
1712835210363595300,16.05359521484375,-2.049739360809326,-0.8116555213928223,-7.289233684539795
1712835210383595300,16.07359521484375,-1.472733974456787,1.5920443534851074,-7.682164192199707
1712835210403595300,16.09359521484375,-0.5472919940948486,7.6753692626953125,-8.053297996520996
1712835210423595300,16.11359521484375,1.363231897354126,5.892227649688721,-2.0074002742767334
1712835210443595300,16.13359521484375,-0.5991243720054626,2.663601875305176,8.771150588989258
1712835210463628500,16.153628662109377,-0.21840938925743103,1.9211797714233398,14.88344955444336
1712835210483662000,16.173662109375,-4.886875629425049,3.7151527404785156,15.005677223205566
1712835210503695400,16.1936953125,-4.100467681884766,-0.18272686004638672,6.953198432922363
1712835210523728600,16.213728759765626,-3.1198232173919678,-0.6350312232971191,3.2661304473876953
1712835210543762000,16.233761962890625,3.5871355533599854,-0.40845775604248047,1.5912904739379883
1712835210563795200,16.253795166015625,4.95261287689209,-0.23212242126464844,3.870746612548828
1712835210583828200,16.273828125,2.100605010986328,1.0119132995605469,3.744577407836914
1712835210603861800,16.29386181640625,1.0018768310546875,0.7657957077026367,3.3060054779052734
1712835210623895000,16.31389501953125,0.7551818490028381,0.8700180053710938,3.1271419525146484
1712835210643928300,16.33392822265625,-0.8606491684913635,-0.36749792098999023,2.084261417388916
1712835210663961600,16.353961669921876,-3.2251524925231934,-2.4477291107177734,-1.9022974967956543
1712835210683995100,16.3739951171875,-2.41839337348938,-3.057075023651123,-1.4339404106140137
1712835210704028400,16.3940283203125,-1.5909011363983154,-3.052140235900879,0.2671394348144531
1712835210724061400,16.4140615234375,-1.5170650482177734,-3.0228633880615234,0.21849584579467773
1712835210744094700,16.4340947265625,-1.0718213319778442,-2.6707210540771484,0.4308443069458008
1712835210764128300,16.454128173828124,-1.082320213317871,-2.696256637573242,0.46817827224731445
1712835210784161500,16.47416162109375,0.007785528898239136,-1.7628750801086426,-1.2883777618408203
1712835210804195000,16.494195068359375,0.09285759925842285,-2.0812010765075684,-1.4471869468688965
1712835210824228400,16.514228271484374,0.16524609923362732,-2.1876702308654785,-1.2868618965148926
1712835210844261600,16.53426171875,-0.804768443107605,-2.240691661834717,-1.2420895099639893
1712835210864295000,16.554294921875,-1.826416254043579,-1.2350597381591797,0.3051948547363281
1712835210884328200,16.574328125,-1.7618273496627808,-0.5662860870361328,2.124199390411377
1712835210904361700,16.59436181640625,-0.7146722078323364,0.9251270294189453,4.213976860046387
1712835210924395000,16.61439501953125,-0.7513062953948975,2.617338180541992,6.019439220428467
1712835210944428300,16.63442822265625,-0.661207914352417,2.5597944259643555,6.150050163269043
1712835210964461600,16.654461669921876,-1.6141154766082764,5.717906951904297,10.346159934997559
1712835210984494800,16.674494873046875,0.19705432653427124,6.630173683166504,15.627573013305664
1712835211004528400,16.6945283203125,2.551565408706665,4.9840593338012695,15.237001419067383
1712835211024561700,16.714561767578125,-2.7343199253082275,5.7614336013793945,-0.2785825729370117
1712835211044595000,16.734594970703125,-7.809871673583984,4.175199508666992,-8.446576118469238
1712835211064595000,16.754594970703124,7.263437271118164,3.2230224609375,-5.105578422546387
1712835211084594700,16.7745947265625,8.90542221069336,-1.459303379058838,-5.417757511138916
1712835211104594700,16.7945947265625,8.125250816345215,-1.1664032936096191,-5.352451801300049
1712835211124594700,16.8145947265625,-10.055012702941895,-2.8984904289245605,-12.377984046936035
1712835211144594700,16.8345947265625,-10.20738410949707,-2.7746901512145996,-12.433616638183594
1712835211164594700,16.8545947265625,-4.76577615737915,-4.703380107879639,-4.162590026855469
1712835211184594700,16.8745947265625,-5.689762115478516,-4.080069541931152,-7.754764556884766
1712835211204594700,16.8945947265625,-4.264328479766846,-3.2470664978027344,-8.422111511230469
1712835211224594700,16.9145947265625,-3.4188106060028076,-2.2111105918884277,-8.555917739868164
1712835211244594700,16.9345947265625,-4.54822301864624,-0.586087703704834,-8.321125984191895
1712835211264595000,16.954594970703123,-3.9669647216796875,1.0060882568359375,-6.555327415466309
1712835211284595000,16.974594970703127,-3.1800479888916016,0.7796440124511719,-6.628813743591309
1712835211304595000,16.994594970703126,-0.5049063563346863,3.9302978515625,-3.747917652130127
1712835211324595000,17.014594970703126,-1.3200175762176514,3.2309608459472656,5.309720039367676
1712835211344595000,17.034594970703125,-0.48141342401504517,3.0835256576538086,5.538920879364014
1712835211364594700,17.0545947265625,-0.5547344088554382,2.282036781311035,12.412395477294922
1712835211384594700,17.0745947265625,-2.2016093730926514,3.480195999145508,8.146208763122559
1712835211404594700,17.0945947265625,0.9092323780059814,0.821141242980957,7.66935920715332
1712835211424594700,17.1145947265625,0.9785144329071045,0.9855737686157227,7.403445720672607
1712835211444594700,17.1345947265625,-0.7070192098617554,1.2936677932739258,5.86989688873291
1712835211464594700,17.1545947265625,-0.9460112452507019,1.3289413452148438,5.751675605773926
1712835211484594700,17.1745947265625,-0.7097140550613403,-0.5085992813110352,0.07780218124389648
1712835211504594700,17.1945947265625,-2.41392183303833,-1.2267985343933105,-1.7736327648162842
1712835211524594700,17.2145947265625,-1.524253249168396,-1.6316514015197754,-2.631270408630371
1712835211544594700,17.2345947265625,-1.0178844928741455,-2.0064315795898438,-1.842172384262085
1712835211564594700,17.2545947265625,-0.9429704546928406,-3.0391860008239746,0.028044700622558594
1712835211584594700,17.2745947265625,-0.5184425711631775,-2.4250025749206543,1.4225835800170898
1712835211604594700,17.2945947265625,-0.3950108289718628,-2.4302315711975098,1.4361886978149414
1712835211624594700,17.3145947265625,-0.2954739034175873,-1.2409024238586426,1.6888833045959473
1712835211644594700,17.3345947265625,-0.6364647150039673,-1.3324289321899414,0.8444890975952148
1712835211664594700,17.3545947265625,-0.6300713419914246,-1.3830375671386719,0.9290127754211426
1712835211684595000,17.374594970703125,-1.4413373470306396,-2.1524667739868164,0.5267629623413086
1712835211704595000,17.394594970703125,-1.3607999086380005,-2.1959352493286133,0.6094942092895508
1712835211724595000,17.414594970703124,-0.5597901940345764,-1.9109416007995605,0.5245847702026367
1712835211744595000,17.434594970703124,-0.6154061555862427,-1.45640230178833,-0.18799448013305664
1712835211764595200,17.45459521484375,-0.5894602537155151,-1.5214886665344238,-0.062061309814453125
1712835211784595200,17.47459521484375,0.43075141310691833,0.894984245300293,-1.3888545036315918
1712835211804595200,17.49459521484375,-0.43309181928634644,2.7491140365600586,0.03879261016845703
1712835211824595200,17.51459521484375,-0.6926460266113281,5.822635650634766,7.925991058349609
1712835211844595200,17.53459521484375,2.311713218688965,4.665369987487793,14.119792938232422
1712835211864595000,17.554594970703125,5.104173183441162,2.7661943435668945,13.457893371582031
1712835211884595000,17.574594970703124,1.824705719947815,3.5675525665283203,8.518531799316406
1712835211904595000,17.594594970703124,-2.9656317234039307,4.263175010681152,1.679962158203125
1712835211924595000,17.614594970703124,-5.513873100280762,3.968921661376953,-5.860810279846191
1712835211944595000,17.634594970703127,-6.159348964691162,4.197964668273926,-6.070292949676514
1712835211964595000,17.654594970703126,6.7634782791137695,-1.048922061920166,-4.909289836883545
1712835211984595000,17.674594970703126,-8.041322708129883,-0.5299997329711914,-11.316621780395508
1712835212004595000,17.694594970703125,-9.863354682922363,-1.4736857414245605,-14.621282577514648
1712835212024595000,17.714594970703125,-4.449827671051025,-3.2435593605041504,-6.232758522033691
1712835212044595000,17.734594970703125,-1.237614631652832,-2.7224645614624023,0.6932568550109863
1712835212064595000,17.754594970703124,-1.1621663570404053,-2.7094335556030273,0.620269775390625
1712835212084595000,17.774594970703124,-2.6927053928375244,-3.901094675064087,-2.881795644760132
1712835212104595000,17.794594970703123,-6.141990661621094,-2.4214792251586914,-7.753676414489746
1712835212124595000,17.814594970703126,-1.2721741199493408,0.29709529876708984,-6.874073028564453
1712835212144595000,17.834594970703126,0.3336305618286133,2.3035221099853516,-8.08781909942627
1712835212164595000,17.854594970703126,1.132349967956543,1.2362480163574219,-6.326461315155029
1712835212184595000,17.874594970703125,1.9878499507904053,1.0096673965454102,-6.008960723876953
1712835212204595000,17.894594970703125,1.5112948417663574,3.306565284729004,20.24473762512207
1712835212224595000,17.914594970703124,2.065174102783203,3.26619815826416,20.4605655670166
1712835212244595000,17.934594970703124,0.573293924331665,2.189390182495117,9.850143432617188
1712835212264595200,17.95459521484375,-1.4194574356079102,3.37740421295166,5.022341251373291
1712835212284595200,17.97459521484375,-1.6223969459533691,3.3934946060180664,4.922384738922119
1712835212304595200,17.99459521484375,0.20825159549713135,-0.6323509216308594,1.5155916213989258
1712835212324595200,18.01459521484375,0.567345142364502,-0.4723501205444336,0.9820609092712402
1712835212344595200,18.03459521484375,-0.5338871479034424,-1.5003876686096191,1.2627005577087402
1712835212364595000,18.054594970703125,-1.063009262084961,-1.8598623275756836,0.6276149749755859
1712835212384595000,18.074594970703124,-1.2164700031280518,-1.2955322265625,-0.6799626350402832
1712835212404595000,18.094594970703124,-1.8298959732055664,-1.236546516418457,-1.1131668090820312
1712835212424595000,18.114594970703124,-1.6680729389190674,-2.0606842041015625,-0.015985488891601562
1712835212444595000,18.134594970703127,-0.5985761880874634,-1.9807968139648438,1.1267457008361816
1712835212464595000,18.154594970703126,0.20978301763534546,-1.780970573425293,0.724668025970459
1712835212484595000,18.174594970703126,0.22342705726623535,-1.310628890991211,-0.12454509735107422
1712835212504595000,18.194594970703125,-0.48980098962783813,-1.379136085510254,-1.0019116401672363
1712835212524595000,18.214594970703125,-0.5816684365272522,-1.8844780921936035,-0.9854812622070312
1712835212544595000,18.234594970703125,-0.05121737718582153,-1.590095043182373,-0.5362396240234375
1712835212564595000,18.254594970703124,0.08152765035629272,-1.6531643867492676,-0.40016937255859375
1712835212584595000,18.274594970703124,0.7227168083190918,-0.3977537155151367,0.9495701789855957
1712835212604595000,18.294594970703123,0.50750732421875,0.9791145324707031,1.4951510429382324
1712835212624595000,18.314594970703126,-0.7332067489624023,2.512640953063965,3.968374729156494
1712835212644595000,18.334594970703126,-2.6484885215759277,3.334024429321289,10.609703063964844
1712835212664595000,18.354594970703126,0.05787360668182373,2.8813486099243164,16.469873428344727
1712835212684595000,18.374594970703125,3.776120185852051,2.748220443725586,16.23626708984375
1712835212704595000,18.394594970703125,-0.27962005138397217,4.572953224182129,9.315673828125
1712835212724595000,18.414594970703124,-0.9085365533828735,4.739668846130371,8.957436561584473
1712835212744595000,18.434594970703124,-6.070018291473389,4.407681465148926,-5.599287033081055
1712835212764595200,18.45459521484375,-0.3857545852661133,3.8025245666503906,-0.3492751121520996
1712835212784595200,18.47459521484375,12.00728702545166,0.5078244209289551,-4.360344886779785
1712835212804595200,18.49459521484375,-5.630931854248047,-0.01669025421142578,-11.329855918884277
1712835212824595200,18.51459521484375,-10.253175735473633,-0.6992282867431641,-16.68997573852539
1712835212844595200,18.53459521484375,-3.854304313659668,-3.1897478103637695,-8.797794342041016
1712835212864595000,18.554594970703125,-0.9295608997344971,-3.3551838397979736,-2.7117366790771484
1712835212884595000,18.574594970703124,-2.8307104110717773,-3.8297457695007324,-5.794266223907471
1712835212904595000,18.594594970703124,-2.809577465057373,-3.905674457550049,-5.711435794830322
1712835212924595000,18.614594970703124,-3.9727954864501953,-2.0841493606567383,-7.095516204833984
1712835212944595000,18.634594970703127,-3.6088571548461914,-1.7223320007324219,-6.979702472686768
1712835212964595000,18.654594970703126,-3.0330662727355957,-1.9273695945739746,-6.970995903015137
1712835212984595000,18.674594970703126,-1.262620210647583,3.6359682083129883,-5.440040111541748
1712835213004595000,18.694594970703125,0.30241578817367554,4.338354110717773,-5.388206481933594
1712835213024595000,18.714594970703125,2.389355182647705,3.5247554779052734,2.1105971336364746
1712835213044595000,18.734594970703125,3.1852657794952393,0.4397287368774414,12.755758285522461
1712835213064595000,18.754594970703124,3.7202532291412354,0.3364896774291992,13.069635391235352
1712835213084595000,18.774594970703124,-4.390455722808838,1.8229904174804688,13.263965606689453
1712835213104595000,18.794594970703123,0.38914215564727783,-1.516446590423584,8.307676315307617
1712835213124595000,18.814594970703126,1.4533816576004028,0.22194194793701172,6.090547561645508
1712835213144595000,18.834594970703126,0.8117538094520569,1.0154972076416016,3.2745237350463867
1712835213164595000,18.854594970703126,0.6632521748542786,0.1292428970336914,1.554215431213379
1712835213184595000,18.874594970703125,0.17941665649414062,-0.19760894775390625,-0.10028600692749023
1712835213204595000,18.894594970703125,-2.0547051429748535,-0.5282001495361328,-1.961301565170288
1712835213224595000,18.914594970703124,-2.2647621631622314,-1.327765941619873,-3.4264159202575684
1712835213244595000,18.934594970703124,-1.6896122694015503,-1.9169502258300781,-2.251142740249634
1712835213264595200,18.95459521484375,-1.5619665384292603,-1.8925447463989258,-2.290471315383911
1712835213284595200,18.97459521484375,-0.09761399030685425,-3.3894901275634766,1.8846864700317383
1712835213304595200,18.99459521484375,0.5594155192375183,-2.3075146675109863,2.438624858856201
1712835213324595200,19.01459521484375,0.09772038459777832,-1.1997718811035156,0.9604778289794922
1712835213344595200,19.03459521484375,-0.27464741468429565,-1.658334732055664,-0.49190425872802734
1712835213364595000,19.054594970703125,0.16020125150680542,-2.016589641571045,-1.1504027843475342
1712835213384595000,19.074594970703124,0.22433865070343018,-1.2717618942260742,-0.7872366905212402
1712835213404595000,19.094594970703124,0.5097219944000244,-0.32569313049316406,0.1543130874633789
1712835213424595000,19.114594970703124,0.20996743440628052,0.12200260162353516,1.3246583938598633
1712835213444595000,19.134594970703127,-0.02736663818359375,0.813385009765625,3.123894214630127
1712835213464595000,19.154594970703126,0.020105957984924316,0.7655315399169922,3.23726224899292
1712835213484595000,19.174594970703126,1.8619670867919922,4.973390579223633,11.192459106445312
1712835213504595000,19.194594970703125,3.7229011058807373,1.4323053359985352,11.608348846435547
1712835213524595000,19.214594970703125,3.7846338748931885,1.378556251525879,10.03335952758789
1712835213544595000,19.234594970703125,3.1349711418151855,1.4696617126464844,9.82168960571289
1712835213564595000,19.254594970703124,-4.293210506439209,4.822345733642578,-1.1766088008880615
1712835213584595000,19.274594970703124,6.586610317230225,6.121864318847656,-3.574890613555908
1712835213604595000,19.294594970703123,5.679449081420898,6.370774269104004,-3.584195137023926
1712835213624595000,19.314594970703126,-4.911008358001709,0.3936471939086914,-8.08029842376709
1712835213644595000,19.334594970703126,-7.673874855041504,-0.8575820922851562,-9.75180435180664
1712835213664595000,19.354594970703126,-5.726726531982422,-2.180328369140625,-5.073853015899658
1712835213684595000,19.374594970703125,-4.173886299133301,-2.4472155570983887,-0.3581857681274414
1712835213704595000,19.394594970703125,-4.491615295410156,-2.813798427581787,-0.23345088958740234
1712835213724595000,19.414594970703124,-5.840651988983154,-1.7662692070007324,-2.243856191635132
1712835213744595000,19.434594970703124,-4.265704154968262,-1.103696346282959,-4.499746799468994
1712835213764595200,19.45459521484375,-1.3624780178070068,-0.7791571617126465,-5.176326274871826
1712835213784595200,19.47459521484375,0.38819026947021484,1.1030206680297852,-5.6421685218811035
1712835213804595200,19.49459521484375,-0.031136274337768555,2.96966552734375,-7.12083625793457
1712835213824595200,19.51459521484375,-0.037404775619506836,3.2366886138916016,-7.664661407470703
1712835213844595200,19.53459521484375,0.7998136281967163,2.995664596557617,-7.564289093017578
1712835213864595000,19.554594970703125,-4.0531840324401855,1.5823230743408203,9.181581497192383
1712835213884595000,19.574594970703124,-3.299222707748413,1.4884014129638672,9.348526000976562
1712835213904595000,19.594594970703124,6.011899948120117,-1.805274486541748,10.85836410522461
1712835213924595000,19.614594970703124,3.9615604877471924,0.4627351760864258,6.274158477783203
1712835213944595000,19.634594970703127,0.9435250163078308,2.404463768005371,3.1795525550842285
1712835213964595000,19.654594970703126,0.8766504526138306,2.428426742553711,3.1213040351867676
1712835213984595000,19.674594970703126,-0.4164884686470032,0.32639026641845703,2.1982131004333496
1712835214004595000,19.694594970703125,-1.2046291828155518,-1.6101274490356445,1.4178476333618164
1712835214024595000,19.714594970703125,-2.8711698055267334,-3.3170366287231445,-0.31282806396484375
1712835214044595000,19.734594970703125,-3.0604279041290283,-3.2400903701782227,-0.4470796585083008
1712835214064595000,19.754594970703124,-2.564418315887451,-2.3556032180786133,-1.4474408626556396
1712835214084595000,19.774594970703124,-2.5222980976104736,-2.308854103088379,-1.5268442630767822
1712835214104595000,19.794594970703123,-0.1275939643383026,-1.713611125946045,1.0341072082519531
1712835214124595000,19.814594970703126,-0.14013239741325378,-0.9969148635864258,0.6365008354187012
1712835214144595000,19.834594970703126,0.06613294780254364,-0.9048776626586914,0.45236873626708984
1712835214164595000,19.854594970703126,0.17549744248390198,-0.9579906463623047,0.54742431640625
1712835214184595000,19.874594970703125,0.85001540184021,-1.6883492469787598,0.5320448875427246
1712835214204595000,19.894594970703125,-0.7151991128921509,-1.6235852241516113,-1.179032802581787
1712835214224595000,19.914594970703124,-0.5545767545700073,-1.70204496383667,-1.0093340873718262
1712835214244596000,19.934595947265624,-0.4577903747558594,-0.6691493988037109,2.182032585144043
1712835214264596200,19.95459619140625,-1.7216066122055054,2.4508275985717773,5.097587585449219
1712835214284596200,19.97459619140625,-0.7562094926834106,4.671547889709473,10.305561065673828
1712835214304596200,19.99459619140625,3.1924571990966797,1.8715791702270508,13.883245468139648
1712835214324596200,20.01459619140625,4.020907878875732,1.8313274383544922,12.67408561706543
1712835214344596700,20.0345966796875,3.5338125228881836,1.9369840621948242,12.395439147949219
1712835214364596500,20.054596435546873,-1.6313139200210571,4.561033248901367,1.132911205291748
1712835214384596500,20.074596435546876,-2.4371938705444336,4.776710510253906,0.8872008323669434
1712835214404596500,20.094596435546876,8.500274658203125,2.330349922180176,-0.8768610954284668
1712835214424596500,20.114596435546876,7.597524642944336,2.648458480834961,-0.9290156364440918
1712835214444596000,20.134595947265623,-11.996101379394531,4.459070205688477,-13.645151138305664
1712835214464596000,20.154595947265626,-7.308319091796875,-2.296107292175293,-10.832828521728516
1712835214484596000,20.174595947265626,-3.816490888595581,-2.703026294708252,-0.42835235595703125
1712835214504596000,20.194595947265626,-1.8469579219818115,-5.443353652954102,-2.54398512840271
1712835214524596000,20.214595947265625,-5.204800605773926,-3.9235951900482178,-6.007108211517334
1712835214544596000,20.234595947265625,-5.825935363769531,-0.7077469825744629,-6.3115129470825195
1712835214564596000,20.254595947265624,-4.380516052246094,-0.7778210639953613,-4.6371331214904785
1712835214584596000,20.274595947265624,-4.03626823425293,-0.8797092437744141,-4.758792877197266
1712835214604596000,20.294595947265623,-0.2925708293914795,0.2653489112854004,-2.402271270751953
1712835214624596000,20.314595947265627,1.7664082050323486,2.1982059478759766,-4.511177062988281
1712835214644595700,20.334595703125,3.66194748878479,1.953122615814209,-5.564384460449219
1712835214664595700,20.354595703125,4.481647491455078,1.7051992416381836,-5.418654918670654
1712835214684595700,20.374595703125,-0.7857065796852112,2.6453371047973633,6.233598232269287
1712835214704595700,20.394595703125,-0.147802472114563,2.5445117950439453,6.411661624908447
1712835214724595700,20.414595703125,0.95418381690979,0.9960536956787109,6.590669631958008
1712835214744595700,20.434595703125,1.1940557956695557,0.9438581466674805,6.733310699462891
1712835214764596000,20.454595947265624,0.40608757734298706,0.2820091247558594,7.54482364654541
1712835214784596200,20.47459619140625,-0.037332773208618164,0.0005064010620117188,6.6464972496032715
1712835214804596200,20.49459619140625,-0.17741787433624268,0.027335166931152344,6.562944412231445
1712835214824596200,20.51459619140625,0.012422800064086914,-1.1318860054016113,1.825251579284668
1712835214844595200,20.53459521484375,-0.977075457572937,-1.2109193801879883,-0.5903511047363281
1712835214864595200,20.55459521484375,-1.226386547088623,-1.140549659729004,-0.7288022041320801
1712835214884595200,20.57459521484375,-1.8370558023452759,-1.4526381492614746,-2.7634849548339844
1712835214904595200,20.59459521484375,-1.3361343145370483,-1.7860713005065918,-2.725720167160034
1712835214924595200,20.61459521484375,-0.4184311628341675,-1.3258709907531738,-1.0774846076965332
1712835214944594400,20.634594482421875,0.3288467526435852,-0.971529483795166,1.4493026733398438
1712835214964594000,20.654593994140626,0.06330926716327667,-1.5643572807312012,1.8169350624084473
1712835214984594200,20.67459423828125,-0.43780747056007385,-2.1838974952697754,0.8538475036621094
1712835215004594200,20.69459423828125,-1.2488294839859009,-2.7870841026306152,-0.4850287437438965
1712835215024594200,20.71459423828125,-1.9463834762573242,-2.7425317764282227,-1.5019936561584473
1712835215044594700,20.7345947265625,-2.111268997192383,-2.769890308380127,-1.857813835144043
1712835215064594700,20.7545947265625,0.4568447768688202,-2.9492087364196777,-0.992283821105957
1712835215084594700,20.7745947265625,0.4343814551830292,-0.4403495788574219,-0.36933422088623047
1712835215104594700,20.7945947265625,-1.6902258396148682,3.382802963256836,1.1882548332214355
1712835215124594700,20.8145947265625,-2.0508296489715576,3.924077033996582,9.201530456542969
1712835215144594700,20.8345947265625,2.761108875274658,2.039510726928711,18.625167846679688
1712835215164594700,20.8545947265625,4.78180456161499,2.2322845458984375,17.10496711730957
1712835215184594700,20.8745947265625,1.4262018203735352,6.430150032043457,13.647514343261719
1712835215204594700,20.8945947265625,0.8053112030029297,6.617369651794434,13.275955200195312
1712835215224594700,20.9145947265625,-3.265617847442627,4.937424659729004,-3.861807107925415
1712835215244595000,20.934594970703124,-1.6306527853012085,3.5483102798461914,-5.2354044914245605
1712835215264595200,20.95459521484375,5.946262836456299,3.740950107574463,-1.4497532844543457
1712835215284595200,20.97459521484375,5.378509998321533,4.116654396057129,-1.713639736175537
1712835215304595200,20.99459521484375,-4.7724761962890625,0.2774667739868164,-9.005369186401367
1712835215324595200,21.01459521484375,-7.707729339599609,-1.9410276412963867,-13.519632339477539
1712835215344595200,21.03459521484375,-6.212002277374268,-4.215755939483643,-10.208721160888672
1712835215364595000,21.054594970703125,-4.904029369354248,-4.425976753234863,-7.343629360198975
1712835215384594700,21.0745947265625,-2.7033798694610596,-3.938908815383911,-7.50142765045166
1712835215404594700,21.0945947265625,-0.39966821670532227,-2.1596531867980957,-7.548267364501953
1712835215424594700,21.1145947265625,-1.9865268468856812,0.8460769653320312,-7.591179847717285
1712835215444594700,21.1345947265625,-1.1704318523406982,5.1380534172058105,-5.731307029724121
1712835215464594700,21.1545947265625,2.984266996383667,3.885891914367676,-4.192108154296875
1712835215484594700,21.1745947265625,2.5024166107177734,0.5485754013061523,-0.3990612030029297
1712835215504594700,21.1945947265625,3.2524588108062744,0.28748130798339844,-0.2689056396484375
1712835215524594700,21.2145947265625,-2.070167064666748,1.3071537017822266,4.974318981170654
1712835215544594700,21.2345947265625,-1.9142130613327026,0.26681995391845703,6.602959156036377
1712835215564595200,21.25459521484375,-2.1589255332946777,-1.245981216430664,2.1806068420410156
1712835215584595000,21.274594970703124,-1.9826936721801758,-1.3709783554077148,2.405921459197998
1712835215604595000,21.294594970703123,4.849532604217529,0.015019416809082031,7.611576080322266
1712835215624595000,21.314594970703126,4.250185966491699,0.5157222747802734,9.516805648803711
1712835215644595000,21.334594970703126,0.880506694316864,1.8173332214355469,6.636847496032715
1712835215664595000,21.354594970703126,0.7547122836112976,1.8515195846557617,6.554243564605713
1712835215684595000,21.374594970703125,0.705046534538269,0.04642295837402344,2.2673821449279785
1712835215704595000,21.394594970703125,-0.7695363759994507,-0.019502639770507812,-0.4390835762023926
1712835215724595000,21.414594970703124,-2.1871979236602783,-0.7548761367797852,-1.239166021347046
1712835215744595000,21.434594970703124,-1.723382830619812,-1.711331844329834,0.11641740798950195
1712835215764595200,21.45459521484375,-1.7501658201217651,-1.6612210273742676,0.03435945510864258
1712835215784595200,21.47459521484375,0.3258925974369049,-2.5931921005249023,2.235323905944824
1712835215804595200,21.49459521484375,0.33055371046066284,-2.2545385360717773,1.1018357276916504
1712835215824595200,21.51459521484375,-0.6201162338256836,-1.8667526245117188,-0.6232180595397949
1712835215844595200,21.53459521484375,-1.1661157608032227,-1.8302698135375977,-1.584535837173462
1712835215864595000,21.554594970703125,-1.7296123504638672,-2.0485177040100098,-1.6566193103790283
1712835215884595000,21.574594970703124,-1.2212347984313965,-2.059955596923828,-1.1085848808288574
1712835215904595000,21.594594970703124,-0.2457987666130066,-1.9014711380004883,-0.6631221771240234
1712835215924595000,21.614594970703124,-0.16121959686279297,-1.903703212738037,-0.8443937301635742
1712835215944595000,21.634594970703127,-0.3730070888996124,-2.828476905822754,-1.2903461456298828
1712835215964595000,21.654594970703126,-0.9202119708061218,-2.3553342819213867,-0.9721248149871826
1712835215984595000,21.674594970703126,-0.7479537725448608,-2.4487762451171875,-0.7909619808197021
1712835216004595000,21.694594970703125,-0.9023681879043579,1.4107704162597656,0.37896013259887695
1712835216024595000,21.714594970703125,-0.8664506673812866,3.0966720581054688,5.550938129425049
1712835216044595000,21.734594970703125,-0.704372227191925,3.0858936309814453,5.5976033210754395
1712835216064595000,21.754594970703124,5.880247592926025,1.6273269653320312,13.084769248962402
1712835216084595000,21.774594970703124,5.724698543548584,1.664637565612793,12.9813232421875
1712835216104595000,21.794594970703123,3.495382308959961,1.825582504272461,9.793471336364746
1712835216124595000,21.814594970703126,-2.255070209503174,2.6183128356933594,-2.1505126953125
1712835216144595000,21.834594970703126,1.0565333366394043,-0.7982296943664551,-7.2451677322387695
1712835216164595000,21.854594970703126,10.143671989440918,1.9287853240966797,-1.4631187915802002
1712835216184595000,21.874594970703125,2.873842239379883,1.5521268844604492,4.24580717086792
1712835216204595000,21.894594970703125,-4.014880657196045,4.519101619720459,-0.8543071746826172
1712835216224595000,21.914594970703124,-3.9602177143096924,2.495269298553467,-7.047715663909912
1712835216244595000,21.934594970703124,-2.407829761505127,0.45308542251586914,-2.4020180702209473
1712835216264595200,21.95459521484375,-0.595991849899292,-1.540346622467041,1.2737150192260742
1712835216284595200,21.97459521484375,-0.827972412109375,-1.44189453125,1.288477897644043
1712835216304595200,21.99459521484375,-4.780081748962402,-2.1033802032470703,-5.515387058258057
1712835216324595200,22.01459521484375,-3.706501007080078,-1.886732578277588,-5.959347248077393
1712835216344595200,22.03459521484375,-2.420867919921875,-1.9179949760437012,-3.189713716506958
1712835216364595000,22.054594970703125,-0.44908857345581055,-1.9666991233825684,-2.9373779296875
1712835216384595000,22.074594970703124,1.4184348583221436,-1.9548735618591309,-5.605175971984863
1712835216404595000,22.094594970703124,1.743001937866211,-2.1001415252685547,-5.5997467041015625
1712835216424595000,22.114594970703124,1.777547836303711,-0.9230775833129883,-8.684704780578613
1712835216444595000,22.134594970703127,-2.0326030254364014,1.8238778114318848,-12.679603576660156
1712835216464595000,22.154594970703126,-7.2795867919921875,6.1208391189575195,-10.82456111907959
1712835216484595000,22.174594970703126,-6.467865943908691,5.706500053405762,-10.328275680541992
1712835216504595000,22.194594970703125,-4.707016468048096,5.766637802124023,5.185689926147461
1712835216524595000,22.214594970703125,-4.500552177429199,3.1398630142211914,16.970138549804688
1712835216544595000,22.234594970703125,0.7588394284248352,-1.1388473510742188,18.62300682067871
1712835216564595000,22.254594970703124,0.22080600261688232,-2.4937472343444824,20.17339515686035
1712835216584595000,22.274594970703124,-1.626935362815857,2.4081058502197266,14.848247528076172
1712835216604595000,22.294594970703123,1.6420392990112305,3.2282028198242188,7.916042804718018
1712835216624595000,22.314594970703126,2.3476078510284424,2.485332489013672,2.4233922958374023
1712835216644595000,22.334594970703126,1.124649167060852,2.1546144485473633,-1.739330768585205
1712835216664595000,22.354594970703126,0.7752877473831177,2.212346076965332,-1.956115961074829
1712835216684595000,22.374594970703125,-1.9533870220184326,-1.4715194702148438,-2.9179365634918213
1712835216704595000,22.394594970703125,-2.054201364517212,-1.399282455444336,-3.080843210220337
1712835216724595000,22.414594970703124,-0.13462650775909424,-3.526888847351074,-0.2505955696105957
1712835216744595000,22.434594970703124,0.23400458693504333,-3.15938138961792,0.45251941680908203
1712835216764595200,22.45459521484375,-0.2609390318393707,-2.647191047668457,0.44222307205200195
1712835216784595200,22.47459521484375,-0.8858894109725952,-2.4651894569396973,0.25145673751831055
1712835216804595200,22.49459521484375,-1.2360652685165405,-2.378239154815674,0.08633804321289062
1712835216824595200,22.51459521484375,-1.2648533582687378,-2.3682303428649902,0.06702423095703125
1712835216844595200,22.53459521484375,0.21015168726444244,-1.92478609085083,0.3207583427429199
1712835216864595000,22.554594970703125,0.5662323236465454,-2.1432180404663086,0.5102672576904297
1712835216884595000,22.574594970703124,0.5886244773864746,-2.1989479064941406,0.6127943992614746
1712835216904595000,22.594594970703124,0.675552248954773,-1.7272133827209473,-0.32837438583374023
1712835216924595000,22.614594970703124,0.10242679715156555,-0.8522725105285645,-1.2684175968170166
1712835216944595000,22.634594970703127,-0.5825861096382141,-0.7118968963623047,-2.0566256046295166
1712835216964595000,22.654594970703126,-1.028307318687439,-0.7913827896118164,0.6443729400634766
1712835216984595000,22.674594970703126,-1.7261990308761597,0.06277084350585938,2.159072160720825
1712835217004595000,22.694594970703125,-1.090059757232666,1.721043586730957,5.624433517456055
1712835217024595000,22.714594970703125,3.2655930519104004,3.40291690826416,12.167030334472656
1712835217044595000,22.734594970703125,7.116171360015869,2.7051773071289062,13.851774215698242
1712835217064595000,22.754594970703124,3.8620262145996094,3.7729339599609375,10.406839370727539
1712835217084595000,22.774594970703124,1.519397497177124,3.559255599975586,6.325636863708496
1712835217104595000,22.794594970703123,2.4268686771392822,2.8682126998901367,1.4986960887908936
1712835217124595000,22.814594970703126,0.4733455181121826,3.6575565338134766,0.7835311889648438
1712835217144595000,22.834594970703126,-3.0237510204315186,2.7300119400024414,-1.9209232330322266
1712835217164595000,22.854594970703126,-1.0224547386169434,2.2438411712646484,-2.093735694885254
1712835217184595000,22.874594970703125,-1.696969985961914,2.492267608642578,-2.201030731201172
1712835217204595000,22.894594970703125,6.815428733825684,1.284348487854004,0.43392276763916016
1712835217224595000,22.914594970703124,-7.645170211791992,0.04164743423461914,-9.741708755493164
1712835217244595000,22.934594970703124,-7.113616943359375,-2.627025604248047,-8.220635414123535
1712835217264595200,22.95459521484375,-7.20548152923584,-2.5086007118225098,-8.328841209411621
1712835217284595200,22.97459521484375,-3.3616819381713867,-3.498114585876465,-2.0053164958953857
1712835217304595200,22.99459521484375,-3.324275493621826,-3.504800796508789,-2.0284016132354736
1712835217324595200,23.01459521484375,-4.158796787261963,-3.613943576812744,-5.567689895629883
1712835217344595200,23.03459521484375,-2.3461005687713623,-1.7190008163452148,-6.293753147125244
1712835217364595000,23.054594970703125,-0.9291591644287109,-1.4561042785644531,-5.4193854331970215
1712835217384595000,23.074594970703124,-0.8151168823242188,1.3027739524841309,-4.86588191986084
1712835217404595000,23.094594970703124,-0.067047119140625,1.1039791107177734,-4.9476447105407715
1712835217424595000,23.114594970703124,1.8406871557235718,2.1631908416748047,-3.776803493499756
1712835217444595000,23.134594970703127,-0.5624818801879883,-0.05951976776123047,2.030874252319336
1712835217464595000,23.154594970703126,0.18106397986412048,-0.2590970993041992,2.3393893241882324
1712835217484595000,23.174594970703126,0.2816850543022156,1.6385269165039062,9.377351760864258
1712835217504595000,23.194594970703125,-0.5654215216636658,2.109987258911133,6.814502716064453
1712835217524595000,23.214594970703125,1.6659328937530518,0.7467355728149414,4.728263854980469
1712835217544595000,23.234594970703125,1.796626329421997,0.7136754989624023,4.847202301025391
1712835217564595000,23.254594970703124,2.062166690826416,0.17962074279785156,7.904854774475098
1712835217584595000,23.274594970703124,1.0478262901306152,0.46838951110839844,5.902580261230469
1712835217604595000,23.294594970703123,0.3568917512893677,-0.1245412826538086,3.8466691970825195
1712835217624595000,23.314594970703126,-0.3648834228515625,-0.6272077560424805,1.6044349670410156
1712835217644595000,23.334594970703126,-1.5028365850448608,-0.8665294647216797,-0.8071892261505127
1712835217664595000,23.354594970703126,-1.7133078575134277,-1.8064541816711426,-2.470104932785034
1712835217684595000,23.374594970703125,-1.1236140727996826,-2.5147995948791504,-1.379384994506836
1712835217704595000,23.394594970703125,-0.884120523929596,-1.8934974670410156,0.33783864974975586
1712835217724595000,23.414594970703124,-0.13258680701255798,-1.1443848609924316,1.5078282356262207
1712835217744595000,23.434594970703124,0.3003130257129669,-1.0664095878601074,2.1690521240234375
1712835217764595200,23.45459521484375,0.48095354437828064,-1.4997963905334473,1.9541587829589844
1712835217784595200,23.47459521484375,0.623214602470398,-1.683119297027588,1.466811180114746
1712835217804595200,23.49459521484375,0.3491054177284241,-1.7422795295715332,0.5654563903808594
1712835217824595200,23.51459521484375,0.37805813550949097,-1.7904572486877441,0.6709566116333008
1712835217844595200,23.53459521484375,-0.8453540205955505,-2.1157960891723633,-0.7367818355560303
1712835217864595000,23.554594970703125,-0.7138564586639404,-2.1645584106445312,-0.6007137298583984
1712835217884595000,23.574594970703124,0.4726470112800598,-0.6584835052490234,0.9325976371765137
1712835217904595000,23.594594970703124,0.6142304539680481,-0.7089128494262695,1.0990571975708008
1712835217924595000,23.614594970703124,0.8018186092376709,-0.7690505981445312,1.383528232574463
1712835217944595000,23.634594970703127,-1.5247066020965576,2.866283416748047,7.457076072692871
1712835217964595000,23.654594970703126,-0.10186195373535156,4.271336555480957,12.504429817199707
1712835217984595000,23.674594970703126,4.59733772277832,1.7058906555175781,10.735393524169922
1712835218004595000,23.694594970703125,4.286224842071533,1.7496881484985352,10.529982566833496
1712835218024595000,23.714594970703125,0.9870221614837646,2.857367515563965,3.6065921783447266
1712835218044595000,23.734594970703125,0.2532960772514343,1.606471061706543,-1.6836073398590088
1712835218064595000,23.754594970703124,0.31294745206832886,1.3615341186523438,-3.7307300567626953
1712835218084595000,23.774594970703124,7.441184997558594,3.800654411315918,-1.4707283973693848
1712835218104595000,23.794594970703123,4.402088165283203,0.3314781188964844,1.1948933601379395
1712835218124595000,23.814594970703126,-3.319657802581787,1.17083740234375,-4.668522357940674
1712835218144595000,23.834594970703126,-7.71190071105957,0.8608169555664062,-13.397584915161133
1712835218164595000,23.854594970703126,-5.815410137176514,-0.3488903045654297,-8.290465354919434
1712835218184595000,23.874594970703125,-3.388758659362793,-2.787454605102539,0.7014026641845703
1712835218204595000,23.894594970703125,-1.8423032760620117,-4.196662902832031,0.9947104454040527
1712835218224595000,23.914594970703124,-3.1962599754333496,-3.8507063388824463,-3.0963475704193115
1712835218244595000,23.934594970703124,-4.146520614624023,-2.2179412841796875,-4.497504711151123
1712835218264595200,23.95459521484375,-2.768122911453247,-1.5382332801818848,-4.252907752990723
1712835218284595200,23.97459521484375,-2.5273396968841553,-1.6294598579406738,-4.273891925811768
1712835218304595200,23.99459521484375,0.5402927398681641,-0.3567476272583008,-6.812638759613037
1712835218324595200,24.01459521484375,1.151841402053833,-0.5310192108154297,-6.842151165008545
1712835218344595200,24.03459521484375,1.7089433670043945,2.164031982421875,-7.132514476776123
1712835218364595000,24.054594970703125,1.8016996383666992,5.555683135986328,-7.4066009521484375
1712835218384595000,24.074594970703124,-3.075831413269043,1.3666801452636719,5.860116958618164
1712835218404595000,24.094594970703124,-2.2949624061584473,1.2522411346435547,6.206079959869385
1712835218424595000,24.114594970703124,3.084489107131958,-0.49080467224121094,14.32604694366455
1712835218444595000,24.134594970703127,-2.3167264461517334,1.575531005859375,5.863619804382324
1712835218464595000,24.154594970703126,-0.932919979095459,0.28899288177490234,2.506361722946167
1712835218484595000,24.174594970703126,2.4737672805786133,-1.2215290069580078,5.503655433654785
1712835218504595000,24.194594970703125,2.4412431716918945,-1.2046632766723633,5.450875282287598
1712835218524595000,24.214594970703125,1.728885531425476,-0.29730224609375,4.634311676025391
1712835218544595000,24.234594970703125,1.3013252019882202,-0.043376922607421875,3.537907123565674
1712835218564595000,24.254594970703124,-0.14285600185394287,-1.336380958557129,0.8072061538696289
1712835218584595000,24.274594970703124,-0.4529895782470703,-1.2698173522949219,0.626899242401123
1712835218604595000,24.294594970703123,-1.4517369270324707,-3.3172621726989746,-3.219759464263916
1712835218624595000,24.314594970703126,-1.4256888628005981,-2.8321328163146973,-2.0622847080230713
1712835218644595000,24.334594970703126,-0.8542819023132324,-2.6684494018554688,0.029956340789794922
1712835218664595000,24.354594970703126,-0.40236997604370117,-2.485198497772217,1.8897356986999512
1712835218684595000,24.374594970703125,0.32530003786087036,-1.9423003196716309,3.1092453002929688
1712835218704595000,24.394594970703125,0.67777419090271,-2.4980430603027344,2.545804500579834
1712835218724595000,24.414594970703124,0.7223206162452698,-2.5663633346557617,2.684741497039795
1712835218744595000,24.434594970703124,0.08443444967269897,-1.4462218284606934,0.4684791564941406
1712835218764595200,24.45459521484375,-0.3862692713737488,-0.9996781349182129,-0.5681021213531494
1712835218784595200,24.47459521484375,-0.18526005744934082,-0.3600740432739258,0.5136926174163818
1712835218804595200,24.49459521484375,-0.012850403785705566,-0.41293811798095703,0.6852736473083496
1712835218824595200,24.51459521484375,-2.3352904319763184,2.0988216400146484,6.281489372253418
1712835218844595200,24.53459521484375,0.4383760690689087,2.289060592651367,12.556764602661133
1712835218864595000,24.554594970703125,5.707354545593262,1.2899408340454102,13.463052749633789
1712835218884595000,24.574594970703124,5.499969959259033,1.314713478088379,13.317117691040039
1712835218904595000,24.594594970703124,2.1858303546905518,4.1441545486450195,5.887081623077393
1712835218924595000,24.614594970703124,-1.2784405946731567,3.466012954711914,-1.8622636795043945
1712835218944595000,24.634594970703127,1.2137539386749268,3.4379186630249023,-3.9568281173706055
1712835218964595000,24.654594970703126,11.745034217834473,3.8237533569335938,-0.07343339920043945
1712835218984595000,24.674594970703126,1.4253487586975098,0.64923095703125,-1.7891457080841064
1712835219004595000,24.694594970703125,-9.118040084838867,1.8313970565795898,-9.458431243896484
1712835219024595000,24.714594970703125,-7.122557163238525,-2.7244577407836914,-8.939420700073242
1712835219044595000,24.734594970703125,-4.518481254577637,-4.033531188964844,-2.8265888690948486
1712835219064595000,24.754594970703124,-4.605033874511719,-3.966540575027466,-2.873605489730835
1712835219084595000,24.774594970703124,-3.39823317527771,-5.199402332305908,-4.935046672821045
1712835219104595000,24.794594970703123,-2.9926393032073975,-2.660736560821533,-7.8074564933776855
1712835219124595000,24.814594970703126,-2.894038438796997,-2.730666160583496,-7.765175819396973
1712835219144595000,24.834594970703126,-1.407734990119934,-1.0136632919311523,-6.326594352722168
1712835219164595000,24.854594970703126,-0.6167007684707642,0.12496280670166016,-5.624098300933838
1712835219184595000,24.874594970703125,0.11948919296264648,-0.06585884094238281,-5.625080108642578
1712835219204595000,24.894594970703125,2.317821741104126,3.846184730529785,-6.113072872161865
1712835219224595000,24.914594970703124,3.131990671157837,3.570223808288574,-5.691623687744141
1712835219244595000,24.934594970703124,-3.5690536499023438,2.473133087158203,6.762914657592773
1712835219264595200,24.95459521484375,-1.2621252536773682,0.9198160171508789,14.8876953125
1712835219284595200,24.97459521484375,-1.0604267120361328,-1.1656513214111328,12.704741477966309
1712835219304595200,24.99459521484375,-2.2945451736450195,0.5389432907104492,11.022737503051758
1712835219324595200,25.01459521484375,-2.215243339538574,0.5448188781738281,11.052419662475586
1712835219344595200,25.03459521484375,2.9003524780273438,0.8584127426147461,10.223163604736328
1712835219364595000,25.054594970703125,1.6998361349105835,1.4439811706542969,5.891029357910156
1712835219384595000,25.074594970703124,0.9302675127983093,1.5536565780639648,2.4525983333587646
1712835219404595000,25.094594970703124,0.5429965853691101,0.7047491073608398,0.4336698055267334
1712835219424595000,25.114594970703124,-0.30236953496932983,-0.9454097747802734,-1.2071919441223145
1712835219444595000,25.134594970703127,-0.5479787588119507,-0.8747596740722656,-1.414158582687378
1712835219464595000,25.154594970703126,-0.6144490838050842,-2.487133026123047,-1.7318825721740723
1712835219484595000,25.174594970703126,-0.8530575037002563,-2.984745979309082,-1.2207682132720947
1712835219504595000,25.194594970703125,-0.8245718479156494,-2.811281681060791,0.3838229179382324
