time,seconds_elapsed,z,y,x
1712835194366039300,0.056039306640625,-0.02275473065674305,0.04024074971675873,0.04726569727063179
1712835194388042200,0.078042236328125,-0.023365596309304237,0.04512767121195793,0.05826127156615257
1712835194408042200,0.098042236328125,-0.00931569468230009,0.058566704392433167,0.04909829422831535
1712835194428042200,0.118042236328125,-0.02519819140434265,0.07017314434051514,0.05276348441839218
1712835194448042200,0.138042236328125,-0.04352414980530739,0.04634939879179001,0.05642867833375931
1712835194468042200,0.158042236328125,-0.059406645596027374,0.02863430790603161,0.07170030474662781
1712835194488042200,0.178042236328125,-0.07162395119667053,0.03107776865363121,0.07964155822992325
1712835194508042200,0.198042236328125,-0.08811730891466141,0.06956227868795395,0.082085020840168
1712835194528042200,0.218042236328125,-0.08811730891466141,0.08605564385652542,0.08391761034727097
1712835194548042200,0.238042236328125,-0.06429356336593628,0.04818199574947357,0.11629346758127213
1712835194568042200,0.258042236328125,-0.06368270516395569,0.11049024760723114,0.12912164628505707
1712835194588042200,0.278042236328125,-0.01664607785642147,0.4354705512523651,0.16516269743442535
1712835194608042200,0.298042236328125,-0.02825251780450344,0.7170794606208801,0.23296873271465302
1712835194628042200,0.318042236328125,0.01572977937757969,0.8380307555198669,0.3612504303455353
1712835194648042200,0.338042236328125,0.1843285858631134,1.1660653352737427,0.3740786015987396
1712835194668042200,0.358042236328125,0.6094908118247986,1.6297121047973633,0.27695104479789734
1712835194688043000,0.37804296875,0.5349652171134949,2.005394220352173,0.1932624876499176
1712835194708043000,0.39804296875,1.2533427476882935,2.882596731185913,0.05948300287127495
1712835194728043000,0.41804296875,2.7175867557525635,3.440927505493164,-0.3565162420272827
1712835194748043000,0.43804296875,2.263713836669922,4.503833293914795,-0.14882203936576843
1712835194767984000,0.457984130859375,1.3321443796157837,4.892343521118164,-0.04986187443137169
1712835194787928600,0.477928466796875,1.8037323951721191,4.12692928314209,-0.4133267104625702
1712835194807875800,0.497875732421875,2.3272438049316406,3.613802433013916,-0.5403866767883301
1712835194827826000,0.517825927734375,2.359619617462158,3.4720816612243652,-0.5642104148864746
1712835194847778300,0.5377783203125,2.3498458862304688,3.258889675140381,-0.7279223203659058
1712835194867733000,0.55773291015625,2.5190556049346924,2.941239833831787,-0.9111818671226501
1712835194887689500,0.577689453125,2.7114779949188232,2.695061206817627,-1.0712286233901978
1712835194907648000,0.59764794921875,2.6894869804382324,2.5295166969299316,-1.0779480934143066
1712835194927608000,0.617608154296875,2.5660922527313232,2.047544002532959,-1.0480157136917114
1712835194947569700,0.637569580078125,2.6681065559387207,1.5527430772781372,-1.0596221685409546
1712835194967532500,0.657532470703125,2.8935160636901855,1.1135309934616089,-1.0645090341567993
1712835194987497000,0.6774970703125,2.786614418029785,1.0652726888656616,-1.0858893394470215
1712835195007462400,0.69746240234375,2.5465445518493652,0.9754754304885864,-1.0516809225082397
1712835195027429000,0.71742919921875,2.476294994354248,0.8160396218299866,-0.9179013967514038
1712835195047396000,0.73739599609375,2.3907737731933594,0.5197699666023254,-0.7419722080230713
1712835195067362600,0.757362548828125,2.311361312866211,0.12454015016555786,-0.6216317415237427
1712835195087329300,0.777329345703125,1.96133553981781,-0.25847235321998596,-0.42004621028900146
1712835195107296000,0.7972958984375,1.6742289066314697,-0.8058075904846191,-0.17142406105995178
1712835195127262700,0.8172626953125,1.3797918558120728,-1.080696940422058,0.057650405913591385
1712835195147229200,0.837229248046875,1.048092007637024,-1.1827114820480347,0.27634015679359436
1712835195167196000,0.85719580078125,0.793361246585846,-1.1185705661773682,0.36247217655181885
1712835195187162600,0.87716259765625,0.5294674634933472,-0.9878454804420471,0.4565454125404358
1712835195207129300,0.89712939453125,0.24602597951889038,-0.8155814409255981,0.5414556860923767
1712835195227096000,0.917095947265625,-0.06673702597618103,-0.7807621359825134,0.5524512529373169
1712835195247062500,0.9370625,-0.14004085958003998,-0.9298132658004761,0.5072472095489502
1712835195267029200,0.957029296875,0.17333301901817322,-1.1802680492401123,0.37774381041526794
1712835195286995700,0.97699560546875,0.26374107599258423,-1.1985939741134644,0.36186128854751587
1712835195306962400,0.99696240234375,0.2612976133823395,-1.0654253959655762,0.25557073950767517
1712835195326929000,1.016928955078125,0.4524984359741211,-0.6885215044021606,0.11995866149663925
1712835195346895600,1.0368955078125,0.566119372844696,-0.13629931211471558,-0.20746511220932007
1712835195366895600,1.0568955078125,0.5826127529144287,0.3358995318412781,-0.5758168697357178
1712835195386895600,1.0768955078125,0.41890084743499756,0.6425538659095764,-0.2013564556837082
1712835195406895900,1.096895751953125,0.39874228835105896,-0.11552988737821579,0.4858669340610504
1712835195426896000,1.116895751953125,0.4671591818332672,-0.9347001910209656,0.4907538592815399
1712835195446895900,1.136895751953125,0.18188512325286865,-0.348880410194397,0.03871358558535576
1712835195466896000,1.156895751953125,-0.1235474944114685,0.48922669887542725,-0.14882203936576843
1712835195486895900,1.176895751953125,-0.44486260414123535,0.8129853010177612,-0.17753271758556366
1712835195506895600,1.1968955078125,-0.5438227653503418,0.5136613249778748,-0.038866300135850906
1712835195526895600,1.2168955078125,-0.5529857873916626,-0.1705077588558197,0.13400855660438538
1712835195546896000,1.236895751953125,-0.6110179424285889,-0.7526623606681824,0.1981494128704071
1712835195566895900,1.256895751953125,-0.6281222105026245,-1.1197923421859741,0.24213171005249023
1712835195586896000,1.276895751953125,-0.6195700764656067,-1.1662181615829468,0.24274258315563202
1712835195606895900,1.296895751953125,-0.6861543655395508,-1.0501537322998047,0.16638441383838654
1712835195626896000,1.316895751953125,-0.6287330389022827,-0.9035460352897644,0.06436992436647415
1712835195646895600,1.3368955078125,-0.5383250117301941,-0.8852201104164124,0.072311170399189
1712835195666895600,1.3568955078125,-0.4662429094314575,-0.8485682010650635,-0.029703322798013687
1712835195686895600,1.3768955078125,-0.3452915847301483,-0.7612144351005554,-0.1653154045343399
1712835195706895600,1.3968955078125,-0.22617286443710327,-0.6591999530792236,-0.26855164766311646
1712835195726895600,1.4168955078125,-0.10461067408323288,-0.6091089844703674,-0.3333033621311188
1712835195746895600,1.4368955078125,0.07192938029766083,-0.6280458569526672,-0.3528510332107544
1712835195766895600,1.4568955078125,0.28267788887023926,-0.5840635299682617,-0.3626248836517334
1712835195786895600,1.4768955078125,0.5618433356285095,-0.40446916222572327,-0.37117698788642883
1712835195806895600,1.4968955078125,0.8080220222473145,-0.11919508129358292,-0.38644862174987793
1712835195826895600,1.5168955078125,0.9894489645957947,0.21189388632774353,-0.3876703679561615
1712835195846895600,1.5368955078125,1.1061242818832397,0.5741369724273682,-0.3424663245677948
1712835195866895600,1.5568955078125,1.1971431970596313,0.8135961294174194,-0.34918585419654846
1712835195886895600,1.5768955078125,1.2796099185943604,0.8416959643363953,-0.4127158224582672
1712835195906896000,1.596895751953125,1.4274393320083618,0.5319872498512268,-0.41577014327049255
1712835195926895900,1.616895751953125,1.4818063974380493,0.13187053799629211,-0.4224896728992462
1712835195946896000,1.636895751953125,1.451874017715454,-0.32078060507774353,-0.44142648577690125
1712835195966895000,1.65689501953125,1.3993395566940308,-0.6744716167449951,-0.4841870665550232
1712835196005594600,1.6955947265625,1.3926200866699219,-0.7312820553779602,-0.4933500289916992
1712835196025594600,1.7155947265625,1.4457653760910034,-0.6744716167449951,-0.47624582052230835
1712835196045595000,1.735594970703125,1.486693263053894,-0.643317461013794,-0.444480836391449
1712835196065595000,1.755594970703125,1.4677565097808838,-0.6292675733566284,-0.4127158224582672
1712835196085595000,1.775594970703125,1.4158328771591187,-0.6280458569526672,-0.3833943009376526
1712835196105595000,1.795594970703125,1.4170546531677246,-0.7233408093452454,-0.34063372015953064
1712835196125595000,1.815594970703125,1.4036155939102173,-0.9487500786781311,-0.22762365639209747
1712835196145594600,1.8355947265625,1.2319624423980713,-1.2560153007507324,-0.027870727702975273
1712835196165594600,1.8555947265625,0.9589056968688965,-1.4759267568588257,0.21464277803897858
1712835196185594600,1.8755947265625,0.6638578176498413,-1.7685312032699585,0.46815183758735657
1712835196205594600,1.8955947265625,0.4524984359741211,-2.207132577896118,0.6740134358406067
1712835196225594600,1.9155947265625,0.28267788887023926,-2.575484275817871,0.7308239340782166
1712835196245594600,1.9355947265625,0.04444044828414917,-2.4979043006896973,0.838947057723999
1712835196265594600,1.9555947265625,-0.24083362519741058,-2.117946147918701,0.9275225400924683
1712835196285594600,1.9755947265625,-0.5462662577629089,-1.767309546470642,0.9189704060554504
1712835196305594600,1.9955947265625,-0.745408296585083,-1.232191562652588,0.9501245021820068
1712835196325594600,2.0155947265625,-0.8437576293945312,-0.4948772192001343,1.0374782085418701
1712835196345594600,2.0355947265625,-0.9476047158241272,0.258930504322052,1.1871402263641357
1712835196365594600,2.0555947265625,-1.1302534341812134,0.7751116156578064,1.3661237955093384
1712835196385594600,2.0755947265625,-1.2194397449493408,1.0377837419509888,1.484020709991455
1712835196405595000,2.095594970703125,-1.0221302509307861,1.102535367012024,1.4748578071594238
1712835196425595000,2.115594970703125,-0.9628763198852539,1.0982593297958374,1.686217188835144
1712835196445595000,2.135594970703125,-0.9506590366363525,1.1465177536010742,1.9238437414169312
1712835196465595000,2.155594970703125,-0.7160868048667908,1.2051607370376587,1.9030742645263672
1712835196485595000,2.175594970703125,-0.33368512988090515,1.4708871841430664,1.838322639465332
1712835196505594600,2.1955947265625,-0.19196440279483795,1.7763197422027588,1.8511507511138916
1712835196525594600,2.2155947265625,0.10552696883678436,2.304718255996704,1.8230509757995605
1712835196545595000,2.235594970703125,0.6919575929641724,2.633363723754883,1.5499942302703857
1712835196565595600,2.255595703125,1.5642731189727783,3.1684815883636475,0.942794144153595
1712835196585595600,2.275595703125,2.244776964187622,5.125082969665527,0.37346774339675903
1712835196605595600,2.295595703125,2.6839892864227295,7.124444961547852,-0.10667234659194946
1712835196625595600,2.315595703125,2.9943087100982666,6.6381964683532715,-0.6356816291809082
1712835196645595400,2.335595458984375,3.1366403102874756,5.52825403213501,-0.9533315896987915
1712835196665595400,2.355595458984375,2.8495335578918457,4.312021255493164,-1.2593750953674316
1712835196685595400,2.375595458984375,2.2435553073883057,4.208174228668213,-1.0590112209320068
1712835196705595400,2.395595458984375,1.4592043161392212,4.605236530303955,-1.0083094835281372
1712835196725595400,2.415595458984375,0.4421137273311615,4.585689067840576,-1.1426998376846313
1712835196745595400,2.435595458984375,0.10674870014190674,3.4219906330108643,-1.4835625886917114
1712835196765595400,2.455595458984375,0.15622878074645996,1.920483946800232,-1.5947400331497192
1712835196785595400,2.475595458984375,-0.09056077152490616,1.0652726888656616,-1.5422056913375854
1712835196805595400,2.495595458984375,-0.49006664752960205,1.0628291368484497,-1.310687780380249
1712835196825595400,2.515595458984375,-0.9763153791427612,1.2711342573165894,-0.6326273083686829
1712835196845595400,2.535595458984375,-1.489442229270935,0.9663124680519104,-0.10178542137145996
1712835196865595400,2.555595458984375,-1.4967725276947021,0.13859005272388458,0.04726569727063179
1712835196885595400,2.575595458984375,-1.1717922687530518,-0.8931613564491272,0.45471280813217163
1712835196905595600,2.595595703125,-0.8016079068183899,-1.937130093574524,0.951957106590271
1712835196925595600,2.615595703125,-0.6433938145637512,-2.4319307804107666,1.6257414817810059
1712835196945595600,2.635595703125,-0.6317873597145081,-2.807002067565918,2.1938462257385254
1712835196965595600,2.655595703125,-0.8022187948226929,-3.728186845779419,2.5933520793914795
1712835196985595600,2.675595703125,-1.3135130405426025,-5.0470452308654785,2.630614757537842
1712835197005595400,2.695595458984375,-1.7508925199508667,-6.495406627655029,2.148642063140869
1712835197025595400,2.715595458984375,-1.9866864681243896,-7.771503925323486,1.771127462387085
1712835197045595600,2.735595703125,-0.9305005073547363,-7.074506759643555,1.1382709741592407
1712835197065595600,2.755595703125,-0.19624045491218567,-4.127081871032715,0.5585598945617676
1712835197085595600,2.775595703125,-0.032528575509786606,-1.4276684522628784,0.396680623292923
1712835197105595600,2.795595703125,0.37430769205093384,-0.7331146597862244,-0.23739750683307648
1712835197125595600,2.815595703125,0.7976372838020325,-0.7404450178146362,-0.8366563320159912
1712835197145595400,2.835595458984375,0.8856018781661987,-0.8754462599754333,-1.291140079498291
1712835197165595400,2.855595458984375,0.9607383012771606,-1.0452667474746704,-1.5134949684143066
1712835197185595400,2.875595458984375,0.9185886383056641,-0.8693376183509827,-1.4872277975082397
1712835197205595400,2.895595458984375,0.9130908250808716,-0.38980838656425476,-1.479897379875183
1712835197225595400,2.915595458984375,1.0077749490737915,-0.2615266740322113,-1.3503940105438232
1712835197245595400,2.935595458984375,1.0725266933441162,-0.4722751975059509,-1.1982885599136353
1712835197265595400,2.955595458984375,1.0096075534820557,-0.6243806481361389,-1.043739676475525
1712835197285595400,2.975595458984375,0.8587238192558289,-0.6677520871162415,-0.8537605404853821
1712835197305595400,2.995595458984375,0.6265950202941895,-0.7135669589042664,-0.6821073889732361
1712835197325595400,3.015595458984375,0.24358251690864563,-0.6585890650749207,-0.38583776354789734
1712835197345595400,3.035595458984375,0.009621127508580685,-0.48693597316741943,-0.19952386617660522
1712835197365595400,3.055595458984375,-0.20295998454093933,-0.21265746653079987,-0.12072224169969559
1712835197385595400,3.075595458984375,-0.4063780903816223,0.06834054738283157,-0.0443640872836113
1712835197405595600,3.095595703125,-0.5658139586448669,0.2858085632324219,0.09918924421072006
1712835197425595600,3.115595703125,-0.717308521270752,0.27725645899772644,0.33131805062294006
1712835197445595600,3.135595703125,-0.9024006724357605,0.1324813961982727,0.5878814458847046
1712835197465595600,3.155595703125,-1.1290316581726074,-0.043447788804769516,0.7644215226173401
1712835197485595600,3.175595703125,-1.3098478317260742,-0.09292787313461304,0.848110020160675
1712835197505595400,3.195595458984375,-1.4753923416137695,0.09277515858411789,0.9592875242233276
1712835197525595400,3.215595458984375,-1.5590808391571045,0.4159228801727295,1.0851258039474487
1712835197545595600,3.235595703125,-1.4808900356292725,0.6456081867218018,1.1901946067810059
1712835197565595600,3.255595703125,-1.411251425743103,0.8508589267730713,1.3294718265533447
1712835197585595600,3.275595703125,-1.3923145532608032,0.9278279542922974,1.4259885549545288
1712835197605595600,3.295595703125,-1.2377656698226929,0.6798166632652283,1.3196979761123657
1712835197625595600,3.315595703125,-0.955545961856842,0.3896556794643402,1.0894018411636353
1712835197645595400,3.335595458984375,-0.40943244099617004,0.5991824269294739,1.0674107074737549
1712835197665595400,3.355595458984375,0.07131851464509964,1.2424235343933105,0.9482919573783875
1712835197685595400,3.375595458984375,0.5227479338645935,2.8728229999542236,0.5243514776229858
1712835197705595400,3.395595458984375,1.1562151908874512,5.155015468597412,0.12118039280176163
1712835197725595400,3.415595458984375,1.6833919286727905,5.9882354736328125,-0.3027600944042206
1712835197745595400,3.435595458984375,2.0987801551818848,5.563073635101318,-0.7737371921539307
1712835197765595400,3.455595458984375,2.227672815322876,4.2765913009643555,-1.135980248451233
1712835197785595400,3.475595458984375,1.8617645502090454,3.5429420471191406,-1.394376277923584
1712835197805595400,3.495595458984375,1.5777121782302856,4.264373779296875,-1.8164842128753662
1712835197825595400,3.515595458984375,0.963792622089386,4.302247524261475,-2.1237494945526123
1712835197845595400,3.535595458984375,0.7896960377693176,3.5979199409484863,-1.9209420680999756
1712835197865595400,3.555595458984375,0.3712533414363861,2.1440606117248535,-1.6857589483261108
1712835197885595400,3.575595458984375,0.14034628868103027,0.8117635250091553,-1.7584519386291504
1712835197905595600,3.595595703125,0.08414668589830399,0.704862117767334,-1.443245530128479
1712835197925595600,3.615595703125,-0.06490442901849747,0.8050440549850464,-1.0461831092834473
1712835197945595600,3.635595703125,-0.1644754707813263,0.6865361928939819,-0.7083746194839478
1712835197965595600,3.655595703125,-0.4222606122493744,0.3090214431285858,-0.29909488558769226
1712835197985595600,3.675595703125,-0.6782131195068359,-0.22487476468086243,0.24518603086471558
1712835198005595400,3.695595458984375,-0.6177374720573425,-0.7764860987663269,0.8035168647766113
1712835198025595400,3.715595458984375,-0.5083925724029541,-1.3201560974121094,1.339856505393982
1712835198045595600,3.735595703125,-0.5627595782279968,-1.8393915891647339,1.9476674795150757
1712835198065595600,3.755595703125,-0.765566885471344,-2.584036350250244,2.413146734237671
1712835198085595600,3.775595703125,-1.1662944555282593,-3.767282247543335,2.603736639022827
1712835198105595600,3.795595703125,-1.789376974105835,-5.064149379730225,2.3337342739105225
1712835198125595600,3.815595703125,-2.4222333431243896,-6.673168182373047,1.5463290214538574
1712835198145595400,3.835595458984375,-2.532189130783081,-8.003022193908691,1.5793157815933228
1712835198165595400,3.855595458984375,-1.202946424484253,-7.48622989654541,1.522505283355713
1712835198185595400,3.875595458984375,-0.32818734645843506,-5.502750396728516,0.36796995997428894
1712835198205595400,3.895595458984375,-0.1540907621383667,-2.418491840362549,-0.4994587004184723
1712835198225595400,3.915595458984375,0.4415028691291809,0.5350415706634521,-0.5318345427513123
1712835198245595400,3.935595458984375,0.68951416015625,0.6963100433349609,-0.6582836508750916
1712835198265595400,3.955595458984375,1.0768027305603027,-0.7465536594390869,-1.1500301361083984
1712835198285595400,3.975595458984375,1.0590876340866089,-0.8901070356369019,-1.288085699081421
1712835198305595400,3.995595458984375,1.0224356651306152,-0.39958223700523376,-1.3736069202423096
1712835198325595400,4.015595458984375,1.0603092908859253,0.12087496370077133,-1.3852132558822632
1712835198345595400,4.035595458984375,1.1189523935317993,0.15874861180782318,-1.3510048389434814
1712835198365595400,4.055595458984375,1.0144944190979004,0.2039526402950287,-1.07061767578125
1712835198385595400,4.075595458984375,0.792750358581543,0.07261660695075989,-0.7419722080230713
1712835198405595600,4.095595703125,0.6345362663269043,-0.4643339514732361,-0.6222426295280457
1712835198425595600,4.115595703125,0.42439863085746765,-0.9029352068901062,-0.4133267104625702
1712835198445595600,4.135595703125,0.1085812970995903,-0.7740426063537598,-0.19769126176834106
1712835198465595600,4.155595703125,-0.1589776873588562,-0.29878947138786316,-0.04680754989385605
1712835198485595600,4.175595703125,-0.3776674270629883,0.20150917768478394,0.06498079001903534
1712835198505595400,4.195595458984375,-0.5688682794570923,0.5887977480888367,0.2494620978832245
1712835198525595400,4.215595458984375,-0.793666660785675,0.6792057752609253,0.5121341347694397
1712835198545595600,4.235595703125,-1.0001391172409058,0.4421900808811188,0.7289913296699524
1712835198565595600,4.255595703125,-1.13758385181427,0.04818199574947357,0.8438339829444885
1712835198585595600,4.275595703125,-1.222494125366211,-0.051999904215335846,0.9171378016471863
1712835198605595600,4.295595703125,-1.267698049545288,0.13064880669116974,0.9751700162887573
1712835198625595600,4.315595703125,-1.2921327352523804,0.28764116764068604,1.0771845579147339
1712835198645595400,4.335595458984375,-1.298241376876831,0.38415786623954773,1.161483883857727
1712835198665595400,4.355595458984375,-1.2279918193817139,0.4770093858242035,1.1278862953186035
1712835198685595400,4.375595458984375,-1.0966558456420898,0.47273334860801697,0.9611201286315918
1712835198705595400,4.395595458984375,-0.745408296585083,0.5423719882965088,0.9635635614395142
1712835198725595400,4.415595458984375,-0.4558582007884979,0.896062970161438,0.7460955381393433
1712835198745595400,4.435595458984375,-0.016035212203860283,1.655368447303772,0.3191007375717163
1712835198765595400,4.455595458984375,0.6748533844947815,3.1348841190338135,-0.11094839870929718
1712835198785595400,4.475595458984375,1.3217597007751465,4.508109092712402,-0.4487568736076355
1712835198805595400,4.495595458984375,1.6418530941009521,5.1867804527282715,-0.728533148765564
1712835198825595400,4.515595458984375,1.8556559085845947,5.1715087890625,-0.9661597609519958
1712835198845595400,4.535595458984375,1.9503400325775146,4.338899612426758,-1.39559805393219
1712835198865595400,4.555595458984375,1.8654297590255737,4.330347537994385,-1.7694475650787354
1712835198885595400,4.575595458984375,1.448819637298584,4.517271995544434,-2.6038894653320312
1712835198905595600,4.595595703125,1.4036155939102173,4.368832111358643,-2.479883909225464
1712835198925595600,4.615595703125,0.6937901973724365,3.0823497772216797,-1.3534482717514038
1712835198945595600,4.635595703125,0.41401392221450806,0.6431647539138794,-1.6521613597869873
1712835198965595600,4.655595703125,0.49464812874794006,-0.549244225025177,-1.5403730869293213
1712835198985595600,4.675595703125,0.4616613984107971,0.07383833825588226,-0.8965210914611816
1712835199005595400,4.695595458984375,0.4323398768901825,0.9296605587005615,-0.5464953184127808
1712835199025595400,4.715595458984375,0.31871894001960754,1.3878095149993896,-0.40966150164604187
1712835199045595600,4.735595703125,0.07864890247583389,1.172174096107483,-0.12194397300481796
1712835199065595600,4.755595703125,-0.11743884533643723,0.4220315217971802,0.2079232633113861
1712835199085595600,4.775595703125,-0.290313720703125,-0.38919752836227417,0.6630178689956665
1712835199105595600,4.795595703125,-0.4821254014968872,-1.11795973777771,1.1572078466415405
1712835199125595600,4.815595703125,-0.5890268087387085,-1.868713140487671,1.66544771194458
1712835199145595400,4.835595458984375,-0.6708827614784241,-2.6182448863983154,2.1107685565948486
1712835199165595400,4.855595458984375,-0.9799805879592896,-3.582801103591919,2.3508384227752686
1712835199185595400,4.875595458984375,-1.6042848825454712,-4.741612434387207,2.212172031402588
1712835199205595400,4.895595458984375,-2.5144741535186768,-6.116059303283691,1.3423000574111938
1712835199225595400,4.915595458984375,-2.7233898639678955,-7.208897113800049,1.28671133518219
1712835199245595400,4.935595458984375,-1.7136297225952148,-6.924233913421631,1.2641092538833618
1712835199265595400,4.955595458984375,-0.9995282292366028,-4.624326229095459,0.4724279046058655
1712835199285595400,4.975595458984375,-0.6415612101554871,-1.8723783493041992,0.051541756838560104
1712835199305595400,4.995595458984375,-0.38866302371025085,-0.15401439368724823,-0.3058144152164459
1712835199325595400,5.015595458984375,0.15317445993423462,-0.04772384837269783,-0.4322635233402252
1712835199345595400,5.035595458984375,0.5484042763710022,-0.9615782499313354,-0.9808205366134644
1712835199365595400,5.055595458984375,0.7218900322914124,-0.9750173091888428,-1.041296124458313
1712835199385595400,5.075595458984375,0.7677049040794373,-0.4282929003238678,-1.0235810279846191
1712835199405595600,5.095595703125,0.8281805515289307,0.39271000027656555,-1.139034628868103
1712835199425595600,5.115595703125,1.068861484527588,0.8875108361244202,-1.2245557308197021
1712835199445595600,5.135595703125,1.1030699014663696,0.6651558876037598,-1.005255103111267
1712835199465595600,5.155595703125,0.8691084980964661,0.09094256162643433,-0.7291440367698669
1712835199485595600,5.175595703125,0.5997169613838196,-0.6054438352584839,-0.5141194462776184
1712835199505595400,5.195595458984375,0.37919458746910095,-0.9970084428787231,-0.3259729743003845
1712835199525595400,5.215595458984375,0.16294831037521362,-0.9359219074249268,-0.140269935131073
1712835199545595600,5.235595703125,-0.1033889427781105,-0.38919752836227417,0.054596081376075745
1712835199565595600,5.255595703125,-0.30802878737449646,0.2491566687822342,0.2183079719543457
1712835199585595600,5.275595703125,-0.4668537676334381,0.6798166632652283,0.3404810130596161
1712835199605595600,5.295595703125,-0.5181664228439331,0.8325329422950745,0.4608214795589447
1712835199625595600,5.315595703125,-0.5761986374855042,0.7751116156578064,0.6550766229629517
1712835199645595400,5.335595458984375,-0.7203628420829773,0.6095671653747559,0.7839691638946533
1712835199665595400,5.355595458984375,-0.7906123399734497,0.44280093908309937,0.8187885284423828
1712835199685595400,5.375595458984375,-0.926835298538208,0.4049273133277893,0.9324094653129578
1712835199705595400,5.395595458984375,-1.0080803632736206,0.4098142087459564,1.0197631120681763
1712835199725595400,5.415595458984375,-1.0343475341796875,0.26259568333625793,0.9544005990028381
1712835199745595400,5.435595458984375,-1.0807733535766602,0.23449589312076569,0.9507353901863098
1712835199765595400,5.455595458984375,-0.9573785662651062,0.4507421851158142,0.903698742389679
1712835199785595400,5.475595458984375,-0.6482807397842407,0.5228242874145508,0.8462774157524109
1712835199805595400,5.495595458984375,-0.23411411046981812,1.2454779148101807,0.5341253280639648
1712835199825595400,5.515595458984375,0.5630650520324707,2.5344035625457764,-0.12255483865737915
1712835199845595400,5.535595458984375,1.4036155939102173,4.767726898193359,-0.5611560940742493
1712835199865595400,5.555595458984375,1.9112446308135986,5.849569320678711,-0.8568148612976074
1712835199885595400,5.575595458984375,2.1281018257141113,4.9271626472473145,-1.387656807899475
1712835199905595600,5.595595703125,2.202016592025757,3.920456886291504,-1.6753742694854736
1712835199925595400,5.615595458984375,1.9399553537368774,3.4916293621063232,-1.9282724857330322
1712835199945595400,5.635595458984375,1.342529058456421,3.2332334518432617,-2.310063362121582
1712835199965595400,5.655595458984375,1.342529058456421,3.269885301589966,-2.6185503005981445
1712835199985562000,5.67556201171875,0.9363036751747131,2.985222101211548,-1.8390861749649048
1712835200005528600,5.695528564453125,0.28756481409072876,1.454393744468689,-1.4664583206176758
1712835200025495000,5.7154951171875,0.1849394589662552,0.13431400060653687,-1.5458709001541138
1712835200045461800,5.735461669921875,0.1996002197265625,0.07444920390844345,-1.222723126411438
1712835200065428500,5.755428466796875,0.13790282607078552,0.3346777856349945,-0.7590764164924622
1712835200085395200,5.775395263671875,-0.033139441162347794,0.6272822618484497,-0.16714800894260406
1712835200105362000,5.79536181640625,-0.09544769674539566,0.3102431893348694,0.20731239020824432
1712835200125328600,5.81532861328125,-0.168751522898674,-0.458836168050766,0.5188536643981934
1712835200145295000,5.835295166015625,-0.3196352422237396,-0.9976193308830261,1.0411434173583984
1712835200165261800,5.85526171875,-0.3874412775039673,-1.3684145212173462,1.5579354763031006
1712835200185228500,5.875228515625,-0.4772384762763977,-1.7612009048461914,1.9049068689346313
1712835200205195300,5.8951953125,-0.671493649482727,-2.42765474319458,2.0154736042022705
1712835200225161700,5.91516162109375,-1.0905472040176392,-3.61395525932312,2.31235408782959
1712835200245128400,5.93512841796875,-1.6366606950759888,-5.155168056488037,1.856648564338684
1712835200265095400,5.955095458984375,-2.1705570220947266,-7.057402610778809,1.2696070671081543
1712835200285062100,5.975062255859375,-1.8797850608825684,-8.12336254119873,1.1675925254821777
1712835200305028900,5.99502880859375,-1.2860240936279297,-6.659729480743408,1.172479510307312
1712835200324995300,6.014995361328125,-0.8016079068183899,-3.9548180103302,0.48342347145080566
1712835200344962000,6.034962158203125,-0.7539604306221008,-0.8449029922485352,0.02955060638487339
1712835200364928800,6.0549287109375,-0.6152940392494202,0.8838456273078918,-0.05291620269417763
1712835200384895500,6.0748955078125,-0.11927144229412079,0.7134142518043518,0.09613491594791412
1712835200404862000,6.094862060546875,0.12202033400535583,-1.232802391052246,-0.45486554503440857
1712835200424828700,6.11482861328125,0.4512766897678375,-1.624977946281433,-0.748691737651825
1712835200444795400,6.13479541015625,0.7756461501121521,-0.9023243188858032,-0.8879690170288086
1712835200464762000,6.15476220703125,0.9778425693511963,0.2332741618156433,-1.0309114456176758
1712835200484728800,6.174728759765625,1.1122329235076904,1.0011317729949951,-1.2269991636276245
1712835200504695000,6.194695068359375,1.018770456314087,1.1324677467346191,-1.155527949333191
1712835200524662000,6.214662109375,0.7310529947280884,0.7958810329437256,-0.9276752471923828
1712835200544628500,6.23462841796875,0.49098294973373413,-0.026343563571572304,-0.7719045877456665
1712835200564595200,6.25459521484375,0.3828597962856293,-0.7685448527336121,-0.6424011588096619
1712835200584595200,6.27459521484375,0.27718010544776917,-0.8479573130607605,-0.47258061170578003
1712835200604595200,6.29459521484375,0.10125091671943665,-0.4038582742214203,-0.3271946907043457
1712835200624595200,6.31459521484375,-0.07162395119667053,0.19662225246429443,-0.17203491926193237
1712835200644595200,6.33459521484375,-0.2616030275821686,0.6101779937744141,0.025274548679590225
1712835200664595200,6.35459521484375,-0.43020185828208923,0.6822600960731506,0.20609065890312195
1712835200684595200,6.37459521484375,-0.5193881988525391,0.544204592704773,0.39790233969688416
1712835200704595200,6.39459521484375,-0.6433938145637512,0.22166772186756134,0.7234935164451599
1712835200724595000,6.414594970703125,-0.8101600408554077,0.020082194358110428,0.8841511011123657
1712835200744595000,6.434594970703125,-0.9799805879592896,-0.012293662875890732,0.9684504866600037
1712835200764561700,6.454561767578125,-1.0911580324172974,0.12454015016555786,0.9800569415092468
1712835200784528400,6.4745283203125,-1.1888965368270874,0.36705365777015686,1.0576368570327759
1712835200804495000,6.4944951171875,-1.146135926246643,0.2888629138469696,1.0930670499801636
1712835200824461600,6.514461669921875,-0.955545961856842,0.23205243051052094,1.0735193490982056
1712835200844428300,6.53442822265625,-0.7600690722465515,0.16668985784053802,1.1449905633926392
1712835200864394800,6.554394775390625,-0.40943244099617004,0.09277515858411789,0.8994227051734924
1712835200884361500,6.574361572265625,0.14584407210350037,1.151404619216919,0.3948480188846588
1712835200904328000,6.594327880859375,0.7115052938461304,3.778125286102295,0.039324451237916946
1712835200924294700,6.614294677734375,1.5068517923355103,5.543525695800781,-0.3925572633743286
1712835200944261400,6.634261474609375,2.158034086227417,5.589951515197754,-0.8910233378410339
1712835200964228000,6.65422802734375,2.540435791015625,4.660214424133301,-1.0296896696090698
1712835200984195000,6.674195068359375,2.567924737930298,3.74208402633667,-1.2251665592193604
1712835201004161800,6.694161865234375,2.4335343837738037,3.677943229675293,-1.9007835388183594
1712835201024128300,6.714128173828125,1.9753854274749756,4.073783874511719,-2.6124415397644043
1712835201044095000,6.734094970703125,1.3724614381790161,3.8642570972442627,-1.7847192287445068
1712835201064061700,6.754061767578125,0.6137668490409851,2.1886537075042725,-1.5153275728225708
1712835201084028400,6.7740283203125,0.2845104932785034,0.7011969685554504,-1.7883843183517456
1712835201103995100,6.7939951171875,0.23258693516254425,0.29802587628364563,-1.7132478952407837
1712835201123962000,6.813962158203125,0.07437284290790558,0.6352235078811646,-1.2092840671539307
1712835201143928600,6.833928466796875,0.019394971430301666,0.847804605960846,-0.9411142468452454
1712835201163895300,6.853895263671875,-0.17119498550891876,0.4959462285041809,-0.7609090209007263
1712835201183862000,6.873862060546875,-0.4509712755680084,-0.0342848114669323,-0.35407277941703796
1712835201203828700,6.893828857421875,-0.6800457239151001,-0.6750824451446533,0.11201741546392441
1712835201223795200,6.913795166015625,-0.7527387142181396,-1.2102004289627075,0.4876995384693146
1712835201243762000,6.933761962890625,-0.7380779385566711,-1.6237561702728271,0.8749880790710449
1712835201263728600,6.953728759765625,-0.877966046333313,-2.1405482292175293,1.4992923736572266
1712835201283695400,6.9736953125,-1.058171272277832,-2.839988946914673,1.980654239654541
1712835201303662000,6.993662109375,-1.4808900356292725,-3.6848154067993164,2.3227386474609375
1712835201323628500,7.013628662109375,-2.23897385597229,-4.682358264923096,2.168189764022827
1712835201343595300,7.03359521484375,-2.9243645668029785,-5.723272800445557,1.4382058382034302
1712835201363595300,7.05359521484375,-2.711172580718994,-7.123986721038818,1.3203089237213135
1712835201383595300,7.07359521484375,-1.628719449043274,-6.695159435272217,1.3563499450683594
1712835201403595300,7.09359521484375,-1.1491901874542236,-4.797201156616211,0.716163158416748
1712835201423595300,7.11359521484375,-0.8584184050559998,-2.025705575942993,-0.11644618958234787
1712835201443595300,7.13359521484375,-0.43386703729629517,0.17035505175590515,-0.180587038397789
1712835201463595300,7.15359521484375,0.16172657907009125,0.26076310873031616,-0.21846067905426025
1712835201483595500,7.173595458984375,0.5801692605018616,-0.5901721715927124,-0.6491206884384155
1712835201503595500,7.193595458984375,0.7451028823852539,-0.7648796439170837,-0.7700719833374023
1712835201523595500,7.213595458984375,0.8275696635246277,-0.17172949016094208,-0.9075166583061218
1712835201543595500,7.233595458984375,0.8819366693496704,0.7641160488128662,-1.0956631898880005
1712835201563595500,7.253595458984375,1.0309878587722778,1.3878095149993896,-1.1970667839050293
1712835201583595300,7.27359521484375,0.9900598526000977,0.9638689756393433,-0.9233991503715515
1712835201603595300,7.29359521484375,0.7707592248916626,0.10499246418476105,-0.6014732122421265
1712835201623595500,7.313595458984375,0.5129740834236145,-0.8662832975387573,-0.37117698788642883
1712835201643595500,7.333595458984375,0.34437528252601624,-1.302441120147705,-0.16409367322921753
1712835201663595500,7.353595458984375,0.1336267739534378,-0.9536370038986206,0.0069485921412706375
1712835201683595500,7.373595458984375,-0.13698652386665344,-0.1399645060300827,0.20731239020824432
1712835201703595500,7.393595458984375,-0.3196352422237396,0.524046003818512,0.3814089894294739
1712835201723595300,7.41359521484375,-0.46563202142715454,0.6779840588569641,0.506636381149292
1712835201743595300,7.43359521484375,-0.6360634565353394,0.6254496574401855,0.5939900875091553
1712835201763595300,7.45359521484375,-0.7545713186264038,0.4709007441997528,0.7027240991592407
1712835201783595300,7.47359521484375,-0.8266534209251404,0.25160011649131775,0.8065711855888367
1712835201803595300,7.49359521484375,-0.907898485660553,0.0365755558013916,0.8920923471450806
1712835201823595300,7.51359521484375,-1.0911580324172974,-0.13629931211471558,1.0014371871948242
1712835201843595300,7.53359521484375,-1.2524265050888062,-0.2853504419326782,1.0057132244110107
1712835201863595300,7.55359521484375,-1.2163853645324707,-0.20899227261543274,0.9684504866600037
1712835201883595300,7.57359521484375,-0.9683741331100464,-0.10881037265062332,0.9647852778434753
1712835201903595800,7.593595703125,-0.7136433124542236,0.32307136058807373,0.9776134490966797
1712835201923595800,7.613595703125,-0.23777928948402405,0.9907470941543579,0.5982661247253418
1712835201943595800,7.633595703125,0.43967026472091675,2.8031842708587646,0.030161472037434578
1712835201963595800,7.653595703125,1.3413074016571045,5.835519313812256,-0.6112470626831055
1712835201983596000,7.673595947265625,1.6833919286727905,6.7585368156433105,-1.3027465343475342
1712835202003596000,7.693595947265625,1.9460639953613281,5.094539642333984,-1.8812358379364014
1712835202023596000,7.713595947265625,1.9454530477523804,3.4280993938446045,-1.9301050901412964
1712835202043596000,7.733595947265625,1.8721492290496826,2.06953501701355,-1.9777525663375854
1712835202063596000,7.753595947265625,1.532508134841919,2.829451560974121,-1.936213731765747
1712835202083595800,7.773595703125,1.021824836730957,3.580204725265503,-2.3454935550689697
1712835202103595800,7.793595703125,0.6779077053070068,3.8526506423950195,-1.96370267868042
1712835202123596000,7.813595947265625,0.5013676285743713,2.398791551589966,-1.8042668104171753
1712835202143596000,7.833595947265625,0.39935314655303955,0.45440739393234253,-1.793882131576538
1712835202163596000,7.853595947265625,0.2765692472457886,-0.6194937229156494,-1.3668873310089111
1712835202183596000,7.873595947265625,0.18677204847335815,-0.6555347442626953,-0.9912052154541016
1712835202203596000,7.893595947265625,-0.0019853119738399982,-0.06055201590061188,-0.5416083931922913
1712835202223595800,7.913595703125,-0.2561052441596985,0.4067598879337311,-0.14760030806064606
1712835202243595800,7.933595703125,-0.4155410826206207,0.32673653960227966,0.2598468065261841
1712835202263595800,7.953595703125,-0.48945578932762146,-0.14118622243404388,0.6202573180198669
1712835202283595800,7.973595703125,-0.5114469528198242,-0.7777078151702881,1.0032697916030884
1712835202303595800,7.993595703125,-0.5535966157913208,-1.564502239227295,1.475468635559082
1712835202323595800,8.013595703125,-0.6965391039848328,-2.5040130615234375,1.7393624782562256
1712835202343595800,8.033595703125,-0.9451612234115601,-3.378772020339966,1.9342284202575684
1712835202363595800,8.053595703125,-1.3422236442565918,-4.18511438369751,2.2054526805877686
1712835202383595800,8.073595703125,-1.831526756286621,-5.084307670593262,1.873141884803772
1712835202403595800,8.093595703125,-2.227978229522705,-5.9486823081970215,1.421101689338684
1712835202423595800,8.113595703125,-1.7325665950775146,-6.291377544403076,1.4589753150939941
1712835202443595800,8.133595703125,-1.3739886283874512,-5.224195957183838,1.1199450492858887
1712835202463595800,8.153595703125,-1.0673342943191528,-2.843654155731201,0.6251442432403564
1712835202483596000,8.173595947265625,-0.7313584089279175,-0.9487500786781311,0.23480132222175598
1712835202503595500,8.193595458984374,-0.41370847821235657,0.05490151420235634,0.17737999558448792
1712835202523595500,8.213595458984376,-0.08506298810243607,-0.7825947403907776,-0.0443640872836113
1712835202543595500,8.233595458984375,0.20326541364192963,-1.453324794769287,-0.5183955430984497
1712835202563595500,8.253595458984375,0.4378376603126526,-0.9786824584007263,-0.5929210782051086
1712835202583595300,8.27359521484375,0.7206682562828064,-0.25969409942626953,-0.7346417903900146
1712835202603595300,8.29359521484375,0.8636107444763184,0.3902665376663208,-0.9545533061027527
1712835202623595500,8.313595458984375,0.9521862268447876,0.9449321627616882,-1.07061767578125
1712835202643595500,8.333595458984375,0.879493236541748,0.9565386176109314,-0.9301186800003052
1712835202663595500,8.353595458984374,0.7145596146583557,0.3994295001029968,-0.6808856725692749
1712835202683595500,8.373595458984376,0.5099197626113892,-0.5266422033309937,-0.5135086178779602
1712835202703595500,8.393595458984375,0.35659259557724,-0.7770969271659851,-0.3107013404369354
1712835202723595300,8.41359521484375,0.10980302840471268,-0.49609893560409546,-0.0944550409913063
1712835202743595300,8.43359521484375,-0.19746218621730804,-0.0544433668255806,0.10346530377864838
1712835202763595300,8.45359521484375,-0.5138903856277466,0.2491566687822342,0.2696206569671631
1712835202783595300,8.47359521484375,-0.7228062748908997,0.3407864570617676,0.39240455627441406
1712835202803595300,8.49359521484375,-0.7973318696022034,0.34811684489250183,0.5292384028434753
1712835202823595300,8.51359521484375,-0.8339837789535522,0.2845868468284607,0.6459136605262756
1712835202843595300,8.53359521484375,-0.8706356883049011,0.19601137936115265,0.7625889182090759
1712835202863595300,8.55359521484375,-0.9604328870773315,0.03107776865363121,0.8994227051734924
1712835202883595300,8.57359521484375,-1.013578176498413,-0.17905987799167633,1.0362565517425537
1712835202903595300,8.59359521484375,-0.9812023043632507,-0.2877938747406006,1.0148762464523315
1712835202923595300,8.61359521484375,-0.7392996549606323,-0.18211419880390167,1.0252609252929688
1712835202943595300,8.63359521484375,-0.5377141237258911,0.2650391459465027,1.1181124448776245
1712835202963595300,8.65359521484375,-0.08689557760953903,1.1923326253890991,0.8303949236869812
1712835202983595500,8.673595458984375,0.29917123913764954,2.6193137168884277,0.30688342452049255
1712835203003595500,8.693595458984374,1.057865858078003,4.521548271179199,-0.09140071272850037
1712835203023595500,8.713595458984376,1.6363552808761597,5.418909072875977,-0.9221774339675903
1712835203043595500,8.733595458984375,2.0810651779174805,4.351727485656738,-1.5507577657699585
1712835203063595500,8.753595458984375,2.2820398807525635,3.3883931636810303,-1.9007835388183594
1712835203083595300,8.77359521484375,2.484847068786621,3.4665839672088623,-1.8910096883773804
1712835203103595300,8.79359521484375,2.3266329765319824,3.6070828437805176,-2.6991844177246094
1712835203123595500,8.813595458984375,1.4280502796173096,4.150142192840576,-2.237981081008911
1712835203143595500,8.833595458984375,0.8098546266555786,2.7243826389312744,-2.025400161743164
1712835203163595500,8.853595458984374,0.6027712821960449,1.1178070306777954,-1.9991328716278076
1712835203183595500,8.873595458984376,0.204487144947052,0.6828709840774536,-1.850692629814148
1712835203203595500,8.893595458984375,-0.40026944875717163,1.3090078830718994,-1.5947400331497192
1712835203223595300,8.91359521484375,-0.9506590366363525,1.9760726690292358,-1.2398273944854736
1712835203243595300,8.93359521484375,-1.6836973428726196,2.2692880630493164,-0.6460663676261902
1712835203263595300,8.95359521484375,-1.990351676940918,1.714011549949646,-0.04008803144097328
1712835203283595300,8.97359521484375,-2.074651002883911,0.5026657581329346,0.5048037767410278
1712835203303595300,8.99359521484375,-2.2127065658569336,-1.0403798818588257,0.8267297744750977
1712835203323595300,9.01359521484375,-1.9555323123931885,-2.2340104579925537,1.0087676048278809
1712835203343595300,9.03359521484375,-1.647045373916626,-2.9010753631591797,0.639194130897522
1712835203363595300,9.05359521484375,-1.6299412250518799,-2.7282004356384277,0.7992408275604248
1712835203383595300,9.07359521484375,-1.3477214574813843,-1.395903468132019,1.372232437133789
1712835203403595300,9.09359521484375,-1.135140299797058,-0.5248095989227295,1.4088842868804932
1712835203423595300,9.11359521484375,-0.8480336666107178,-0.19372063875198364,1.3166437149047852
1712835203443595300,9.13359521484375,-0.4882340431213379,-0.049556441605091095,1.4259885549545288
1712835203463595300,9.15359521484375,0.29245173931121826,-0.7331146597862244,1.2433398962020874
1712835203483595500,9.173595458984375,0.8446739315986633,-1.0385472774505615,0.9214138388633728
1712835203503595500,9.193595458984374,0.9894489645957947,-0.5260313153266907,0.7595345973968506
1712835203523595500,9.213595458984376,0.8489499688148499,0.12026409804821014,0.8621599078178406
1712835203543595500,9.233595458984375,0.4634940028190613,0.6059019565582275,1.228068232536316
1712835203563595500,9.253595458984375,-0.014202617108821869,1.2595278024673462,1.1364384889602661
1712835203583595300,9.27359521484375,-0.9952521920204163,1.1019245386123657,0.4913647174835205
1712835203603595300,9.29359521484375,-2.25791072845459,-0.15951219201087952,0.21708624064922333
1712835203623595500,9.313595458984375,-2.0331122875213623,-2.7752370834350586,-0.1256091594696045
1712835203643595500,9.333595458984375,0.07192938029766083,-4.235205173492432,-0.9698249101638794
1712835203663595500,9.353595458984374,0.13607023656368256,-1.3641384840011597,-0.5617669224739075
1712835203683595500,9.373595458984376,0.7402159571647644,2.3419809341430664,-0.45058947801589966
1712835203703595500,9.393595458984375,1.7090482711791992,3.5447747707366943,-0.9038515090942383
1712835203723595300,9.41359521484375,1.277166485786438,4.948543071746826,-1.3351223468780518
1712835203743595300,9.43359521484375,0.9906707406044006,5.330944538116455,-1.6442201137542725
1712835203763595300,9.45359521484375,0.337044894695282,3.1715359687805176,-0.9863182902336121
1712835203783595300,9.47359521484375,0.5300782918930054,-0.6146067976951599,-0.44570255279541016
1712835203803595300,9.49359521484375,0.8538368940353394,-1.9859992265701294,-0.5495496392250061
1712835203823595300,9.51359521484375,1.200197458267212,-2.0122663974761963,-0.6814965605735779
1712835203843595300,9.53359521484375,1.3406964540481567,0.23205243051052094,-0.2264019250869751
1712835203863595300,9.55359521484375,1.1720976829528809,3.116558074951172,0.1779908537864685
1712835203883595300,9.57359521484375,1.0493137836456299,3.2521703243255615,0.2439643144607544
1712835203903595300,9.59359521484375,0.5691736936569214,1.8642843961715698,0.7992408275604248
1712835203923595300,9.61359521484375,-0.17669276893138885,-1.3916274309158325,0.9770026206970215
1712835203943595300,9.63359521484375,-1.1009318828582764,-3.803934335708618,0.7552585005760193
1712835203963595300,9.65359521484375,-1.497994303703308,-5.54245662689209,0.4669301211833954
1712835203983595500,9.673595458984375,-1.3190107345581055,-4.253530979156494,-0.3076470196247101
1712835204003595500,9.693595458984374,-0.9421069025993347,-2.1998021602630615,-0.8427649736404419
1712835204023595500,9.713595458984376,-0.8584184050559998,0.734794557094574,-0.35590535402297974
1712835204043595500,9.733595458984375,0.19288070499897003,2.1458933353424072,-0.11766792088747025
1712835204063595500,9.753595458984375,-0.00931569468230009,1.3664292097091675,-0.8635343909263611
1712835204083595300,9.77359521484375,0.30405816435813904,2.385963201522827,-1.071839451789856
1712835204103595300,9.79359521484375,0.8110763430595398,1.743333101272583,-0.9777661561965942
1712835204123595500,9.813595458984375,0.8104654550552368,0.3646101951599121,-1.1396454572677612
1712835204143595500,9.833595458984375,1.031598687171936,0.2534327208995819,-1.1732430458068848
1712835204163595500,9.853595458984374,1.2093604803085327,0.3059671223163605,-1.7346282005310059
1712835204183595500,9.873595458984376,1.535562515258789,1.0408380031585693,-1.2935835123062134
1712835204203595500,9.893595458984375,1.836719036102295,1.1471285820007324,-1.3332897424697876
1712835204223595300,9.91359521484375,0.8287914395332336,1.2399801015853882,0.3288745880126953
1712835204243595300,9.93359521484375,0.6821837425231934,0.38293614983558655,1.6257414817810059
1712835204263595300,9.95359521484375,0.9784533977508545,-1.68911874294281,2.04723858833313
1712835204283595300,9.97359521484375,0.8654433488845825,-2.5174520015716553,2.181628942489624
1712835204303595300,9.99359521484375,0.4060726761817932,-2.3751204013824463,2.4174227714538574
1712835204323595300,10.01359521484375,-0.20173825323581696,-3.378772020339966,2.8028788566589355
1712835204343595300,10.03359521484375,-0.7728972434997559,-4.820414066314697,3.0209577083587646
1712835204363595300,10.05359521484375,-1.5218180418014526,-7.193014621734619,2.3807709217071533
1712835204383595300,10.07359521484375,-1.5053247213363647,-7.222336292266846,2.025858163833618
1712835204403595300,10.09359521484375,-1.0325149297714233,-5.464876651763916,0.8169559240341187
1712835204423595300,10.11359521484375,-1.0948232412338257,-1.6964491605758667,0.4669301211833954
1712835204443595300,10.13359521484375,-0.6342308521270752,0.7848854660987854,0.33864840865135193
1712835204463595300,10.15359521484375,-0.3220787048339844,-0.38064539432525635,-0.21479548513889313
1712835204483595500,10.173595458984375,-0.11743884533643723,-2.0629682540893555,-0.4371504485607147
1712835204503595500,10.193595458984374,0.33460143208503723,-2.3122012615203857,-0.6973790526390076
1712835204523595500,10.213595458984376,0.7841982841491699,-1.612149715423584,-0.8726973533630371
1712835204543595500,10.233595458984375,1.0175487995147705,-0.03611740842461586,-1.1042152643203735
1712835204563595500,10.253595458984375,1.1232284307479858,0.7745007872581482,-1.3027465343475342
1712835204583595300,10.27359521484375,1.1330022811889648,1.0811551809310913,-1.260596752166748
1712835204603595300,10.29359521484375,1.108567714691162,0.8868999481201172,-1.1604149341583252
1712835204623595500,10.313595458984375,0.9002626538276672,0.3041345477104187,-0.9337838888168335
1712835204643595500,10.333595458984375,0.5447390675544739,-0.38064539432525635,-0.6375142335891724
1712835204663595500,10.353595458984374,0.20570887625217438,-0.9542478919029236,-0.44020476937294006
1712835204683595500,10.373595458984376,-0.15103642642498016,-1.0599275827407837,-0.2465604841709137
1712835204703595500,10.393595458984375,-0.45402559638023376,-0.691575825214386,-0.03214678168296814
1712835204723595300,10.41359521484375,-0.6934847831726074,-0.29329168796539307,0.19570595026016235
1712835204743595300,10.43359521484375,-0.8455902338027954,-0.006795875728130341,0.3588069677352905
1712835204763595300,10.45359521484375,-0.9091202020645142,0.14592044055461884,0.48953214287757874
1712835204783595300,10.47359521484375,-1.0441213846206665,0.2393828183412552,0.7021132707595825
1712835204803595300,10.49359521484375,-1.183398723602295,0.39209914207458496,0.9293550848960876
1712835204823595300,10.51359521484375,-1.0758863687515259,0.5643631219863892,1.0533607006072998
1712835204843595300,10.53359521484375,-1.0147998332977295,0.534430742263794,1.151710033416748
1712835204863595300,10.55359521484375,-1.1571314334869385,0.514272153377533,1.3795628547668457
1712835204883595300,10.57359521484375,-0.9989174008369446,0.15202908217906952,1.4724143743515015
1712835204903595300,10.59359521484375,-0.7276932001113892,-0.4240168333053589,1.407051682472229
1712835204923595300,10.61359521484375,-0.6201809644699097,-0.6396522521972656,1.2433398962020874
1712835204943595300,10.63359521484375,-0.1791362315416336,0.18684840202331543,0.8560512661933899
1712835204963595300,10.65359521484375,0.6571382880210876,2.725604295730591,0.33803755044937134
1712835204983595500,10.673595458984375,1.5294538736343384,5.185558795928955,-0.05169447138905525
1712835205003595500,10.693595458984374,1.7511979341506958,5.9155426025390625,-0.6845508813858032
1712835205023595500,10.713595458984376,2.0480785369873047,4.376773357391357,-1.2526555061340332
1712835205043595500,10.733595458984375,2.1109976768493652,3.357239007949829,-1.366276502609253
1712835205063595500,10.753595458984375,1.9320141077041626,3.437873125076294,-2.0351738929748535
1712835205083595300,10.77359521484375,1.496467113494873,3.7915642261505127,-2.343660831451416
1712835205103595300,10.79359521484375,1.0670288801193237,3.449479579925537,-1.7602845430374146
1712835205123595500,10.813595458984375,0.2900082767009735,2.2246949672698975,-1.1793516874313354
1712835205143595500,10.833595458984375,-0.044745877385139465,0.8331438302993774,-1.3155746459960938
1712835205163595500,10.853595458984374,-0.23655757308006287,0.3548363447189331,-1.003422498703003
1712835205183595500,10.873595458984376,-0.4216497242450714,0.4647921025753021,-0.6118578910827637
1712835205203595500,10.893595458984375,-0.5285511612892151,0.3847687542438507,-0.10300715267658234
1712835205223595300,10.91359521484375,-0.6287330389022827,-0.19921842217445374,0.3398701548576355
1712835205243595300,10.93359521484375,-0.6623306274414062,-1.1564443111419678,0.6978371739387512
1712835205263595300,10.95359521484375,-0.5432119369506836,-1.8186222314834595,1.0735193490982056
1712835205283595300,10.97359521484375,-0.48640143871307373,-2.1222221851348877,1.5353333950042725
1712835205303595300,10.99359521484375,-0.671493649482727,-2.603584051132202,2.0820577144622803
1712835205323595300,11.01359521484375,-1.2176071405410767,-3.7330739498138428,2.2952497005462646
1712835205343595300,11.03359521484375,-1.9201022386550903,-5.187543869018555,1.6055829524993896
1712835205363595300,11.05359521484375,-2.4668266773223877,-6.154543876647949,1.4253777265548706
1712835205383595300,11.07359521484375,-1.5712981224060059,-6.591312408447266,1.2665526866912842
1712835205403595300,11.09359521484375,-0.8272642493247986,-5.634697437286377,0.45288023352622986
1712835205423595300,11.11359521484375,-0.545655369758606,-2.79050874710083,0.07536549866199493
1712835205443595300,11.13359521484375,0.024892758578062057,-0.14729487895965576,-0.2618321180343628
1712835205463595300,11.15359521484375,0.2790127098560333,-0.10697777569293976,-0.4695262908935547
1712835205483595500,11.173595458984375,0.7652614116668701,-0.9163742065429688,-0.8836929202079773
1712835205503595500,11.193595458984374,0.9283624291419983,-0.7239516973495483,-1.0828349590301514
1712835205523595500,11.213595458984376,1.012050986289978,-0.02695442922413349,-1.0981066226959229
1712835205543595500,11.233595458984375,0.9240863919258118,0.5063309073448181,-1.0431287288665771
1712835205563595500,11.253595458984375,0.8520042896270752,0.7372379899024963,-1.0663416385650635
1712835205583595300,11.27359521484375,0.7408268451690674,0.6627124547958374,-0.9655488729476929
1712835205603595300,11.29359521484375,0.48976120352745056,0.37255144119262695,-0.6906595230102539
1712835205623595500,11.313595458984375,0.18005253374576569,-0.2767983078956604,-0.4176027476787567
1712835205643595500,11.333595458984375,-0.05513058975338936,-0.8497899174690247,-0.1598176211118698
1712835205663595500,11.353595458984374,-0.24388794600963593,-0.9811259508132935,0.01488984003663063
1712835205683595500,11.373595458984376,-0.44547349214553833,-0.7972555160522461,0.17432567477226257
1712835205703595500,11.393595458984375,-0.661719799041748,-0.41118866205215454,0.2897791862487793
1712835205723595300,11.41359521484375,-0.8174903988838196,0.007864889688789845,0.4198935031890869
1712835205743595300,11.43359521484375,-0.935998260974884,0.1776854246854782,0.5726097822189331
1712835205763595300,11.45359521484375,-1.0025825500488281,0.14103351533412933,0.6843981742858887
1712835205783595300,11.47359521484375,-1.0343475341796875,0.08849909901618958,0.7894669771194458
1712835205803595300,11.49359521484375,-1.060614824295044,0.12392928451299667,0.8646034002304077
1712835205823595300,11.51359521484375,-1.0716103315353394,0.13614659011363983,0.8939249515533447
1712835205843595300,11.53359521484375,-1.0306823253631592,0.07383833825588226,0.913472592830658
1712835205863595300,11.55359521484375,-0.8541423082351685,0.27725645899772644,0.8713229298591614
1712835205883595300,11.57359521484375,-0.5981897711753845,0.42325326800346375,0.8542186617851257
1712835205903595300,11.59359521484375,-0.21395555138587952,0.5484806299209595,0.7723627686500549
1712835205923595300,11.61359521484375,0.24724771082401276,1.5429692268371582,0.42844560742378235
1712835205943595300,11.63359521484375,0.8672759532928467,3.897854804992676,-0.11400272697210312
1712835205963595300,11.65359521484375,1.7670804262161255,5.599114418029785,-0.80550217628479
1712835205983595500,11.673595458984375,2.43475604057312,5.3737053871154785,-1.2642619609832764
1712835206003595500,11.693595458984374,2.4359779357910156,3.909461259841919,-1.460349678993225
1712835206023595500,11.713595458984376,2.306474447250366,2.8697686195373535,-1.8616881370544434
1712835206043595500,11.733595458984375,1.9472856521606445,3.2106313705444336,-1.7486780881881714
1712835206063595500,11.753595458984375,1.5905404090881348,3.371289014816284,-2.4456753730773926
1712835206083595300,11.77359521484375,1.286940336227417,3.0285935401916504,-1.7272977828979492
1712835206103595300,11.79359521484375,0.8281805515289307,1.9895117282867432,-1.1891255378723145
1712835206123595500,11.813595458984375,0.46532660722732544,0.5063309073448181,-1.3882676362991333
1712835206143595500,11.833595458984375,0.3199406862258911,0.29802587628364563,-1.1329259872436523
1712835206163595500,11.853595458984374,0.09758572280406952,0.8325329422950745,-0.5892558693885803
1712835206183595500,11.873595458984376,0.0010690141934901476,1.1367439031600952,-0.22273674607276917
1712835206203595500,11.893595458984375,-0.270766019821167,0.7964919209480286,0.03504839166998863
1712835206223595300,11.91359521484375,-0.4986187517642975,-0.013515393249690533,0.4260021448135376
1712835206243595300,11.93359521484375,-0.5853615999221802,-1.0929142236709595,0.8755989670753479
1712835206263595300,11.95359521484375,-0.7612907886505127,-2.167426347732544,1.2543354034423828
1712835206283595300,11.97359521484375,-1.011745572090149,-3.105715274810791,1.6196328401565552
1712835206303595300,11.99359521484375,-1.3074043989181519,-4.116697311401367,1.6141350269317627
1712835206323595300,12.01359521484375,-1.751503348350525,-5.0720906257629395,1.1175016164779663
1712835206343595300,12.03359521484375,-2.029447078704834,-5.774585723876953,1.1565970182418823
1712835206363595300,12.05359521484375,-1.5407549142837524,-5.846667766571045,1.427821159362793
1712835206383595300,12.07359521484375,-1.0502300262451172,-4.304843902587891,0.8151233196258545
1712835206403595300,12.09359521484375,-1.1516337394714355,-2.201634645462036,0.24579690396785736
1712835206423595300,12.11359521484375,-0.8498662710189819,0.04634939879179001,0.37224599719047546
1712835206443595300,12.13359521484375,-0.3556762933731079,-0.6158285140991211,0.22258402407169342
1712835206463595300,12.15359521484375,0.015118914656341076,-1.877265214920044,-0.34429892897605896
1712835206483595500,12.173595458984375,0.26190847158432007,-1.5095243453979492,-0.5587126016616821
1712835206503595500,12.193595458984374,0.6687447428703308,-0.9102655649185181,-0.7822893261909485
1712835206523595500,12.213595458984376,0.8232936263084412,-0.41607558727264404,-1.043739676475525
1712835206543595500,12.233595458984375,0.899040937423706,0.10315986722707748,-1.194623351097107
1712835206563595500,12.253595458984375,0.8556694984436035,0.5991824269294739,-1.1463650465011597
1712835206583595300,12.27359521484375,0.669355571269989,0.552756667137146,-0.8323802351951599
1712835206603595300,12.29359521484375,0.4537201523780823,-0.2157117873430252,-0.5165629386901855
1712835206623595500,12.313595458984375,0.2698497176170349,-0.824133574962616,-0.3522401750087738
1712835206643595500,12.333595458984375,0.08781187981367111,-0.8106945157051086,-0.24839307367801666
1712835206663595500,12.353595458984374,-0.11927144229412079,-0.2462550550699234,-0.0999528244137764
1712835206683595500,12.373595458984376,-0.35323283076286316,0.5362633466720581,0.13461942970752716
1712835206703595500,12.393595458984375,-0.48945578932762146,0.9498190879821777,0.283059686422348
1712835206723595300,12.41359521484375,-0.6415612101554871,0.9278279542922974,0.4003458023071289
1712835206743595300,12.43359521484375,-0.8028296232223511,0.5619196891784668,0.5506186485290527
1712835206763595300,12.45359521484375,-0.9213374853134155,0.03962988406419754,0.6929502487182617
1712835206783595300,12.47359521484375,-1.0349584817886353,-0.34949126839637756,0.8181776404380798
1712835206803595300,12.49359521484375,-1.1003210544586182,-0.46677741408348083,0.9250790476799011
1712835206823595300,12.51359521484375,-1.1009318828582764,-0.29451340436935425,0.9458484649658203
1712835206843595300,12.53359521484375,-1.0374019145965576,0.34750595688819885,0.9085856676101685
1712835206863595300,12.55359521484375,-0.9127854108810425,0.8594110608100891,0.9208030104637146
1712835206883595300,12.57359521484375,-0.6238461136817932,1.3090078830718994,0.9495136737823486
1712835206903595300,12.59359521484375,-0.19746218621730804,1.2607494592666626,0.7302130460739136
1712835206923595300,12.61359521484375,0.16600263118743896,1.903990626335144,0.29222264885902405
1712835206943595300,12.63359521484375,0.7841982841491699,3.789120674133301,-0.23312145471572876
1712835206963595300,12.65359521484375,1.3883439302444458,5.185558795928955,-0.7786241173744202
1712835206983595500,12.673595458984375,1.7200437784194946,4.81476354598999,-1.1762974262237549
1712835207003595500,12.693595458984374,1.771356463432312,3.524005174636841,-1.5837445259094238
1712835207023595500,12.713595458984376,1.8122844696044922,2.491032123565674,-1.7804430723190308
1712835207043595500,12.733595458984375,1.5428929328918457,2.4256694316864014,-1.377882957458496
1712835207063595500,12.753595458984375,1.238071084022522,3.646789073944092,-2.090151786804199
1712835207083595300,12.77359521484375,0.5697845816612244,4.093331813812256,-2.2141573429107666
1712835207103595300,12.79359521484375,0.36880987882614136,3.454366683959961,-1.8372535705566406
1712835207123595500,12.813595458984375,0.05054909735918045,1.531362771987915,-1.2465468645095825
1712835207143595500,12.833595458984375,0.09758572280406952,-0.9713521003723145,-1.6283376216888428
1712835207163595500,12.853595458984374,0.21792617440223694,-1.7789160013198853,-1.366276502609253
1712835207183595500,12.873595458984376,0.164170041680336,-1.2554044723510742,-0.6662248969078064
1712835207203595500,12.893595458984375,0.11102475970983505,-0.3232240676879883,-0.05474879592657089
1712835207223595300,12.91359521484375,-0.044745877385139465,0.47334420680999756,0.46387580037117004
1712835207243595300,12.93359521484375,-0.15225815773010254,0.5741369724273682,0.9440158605575562
1712835207263595300,12.95359521484375,-0.04963280260562897,-0.16317738592624664,1.3099241256713867
1712835207283595300,12.97359521484375,-0.009926560334861279,-1.0959686040878296,1.6587282419204712
1712835207303595300,12.99359521484375,-0.21578814089298248,-2.201634645462036,2.050903797149658
1712835207323595300,13.01359521484375,-0.6550002694129944,-3.5314884185791016,2.421698808670044
1712835207343595300,13.03359521484375,-1.4008667469024658,-5.048266887664795,2.2219460010528564
1712835207363595300,13.05359521484375,-2.249358654022217,-6.584592819213867,1.8083901405334473
1712835207383595300,13.07359521484375,-1.6836973428726196,-6.510678291320801,1.7485253810882568
1712835207403595300,13.09359521484375,-1.080162525177002,-4.60477876663208,1.0619128942489624
1712835207423595300,13.11359521484375,-0.9983065128326416,-2.2608885765075684,0.5738315582275391
1712835207443595300,13.13359521484375,-0.6024658679962158,-0.6500369906425476,0.10285443812608719
1712835207463595300,13.15359521484375,-0.28848111629486084,-0.7025713920593262,-0.20685423910617828
1712835207483595500,13.173595458984375,0.024892758578062057,-1.490587592124939,-0.38950294256210327
1712835207503595500,13.193595458984374,0.4488332271575928,-1.433777093887329,-0.6314055919647217
1712835207523595500,13.213595458984376,0.6565274000167847,-0.5168683528900146,-0.8384889364242554
1712835207543595500,13.233595458984375,0.8458956480026245,0.591241180896759,-1.026024580001831
1712835207563595500,13.253595458984375,1.041372537612915,1.2705233097076416,-1.091387152671814
1712835207583595300,13.27359521484375,1.0077749490737915,1.1825587749481201,-0.9814313650131226
1712835207603595300,13.29359521484375,0.8391761183738708,0.5894085764884949,-0.777402400970459
1712835207623595500,13.313595458984375,0.6113234162330627,-0.19372063875198364,-0.521449863910675
1712835207643595500,13.333595458984375,0.3651446998119354,-0.7160104513168335,-0.25328001379966736
1712835207663595500,13.353595458984374,0.18127426505088806,-0.7551057934761047,-0.08407033234834671
1712835207683595500,13.373595458984376,-0.11255192011594772,-0.3220023512840271,0.03810271993279457
1712835207703595500,13.393595458984375,-0.44425174593925476,0.3310126066207886,0.1737148016691208
1712835207723595300,13.41359521484375,-0.7008151412010193,0.6822600960731506,0.2690097689628601
1712835207743595300,13.43359521484375,-0.8504771590232849,0.7121925354003906,0.3795763850212097
1712835207763595300,13.45359521484375,-0.945772111415863,0.429972767829895,0.506636381149292
1712835207783595300,13.47359521484375,-1.0282388925552368,0.0029779679607599974,0.6239224672317505
1712835207803595300,13.49359521484375,-1.0709995031356812,-0.3220023512840271,0.6807329654693604
1712835207823595300,13.51359521484375,-1.0520626306533813,-0.5657375454902649,0.6825655698776245
1712835207843595300,13.53359521484375,-1.1143709421157837,-0.3610977232456207,0.7748062014579773
1712835207863595300,13.55359521484375,-1.0325149297714233,-0.06055201590061188,0.7210500836372375
1712835207883595300,13.57359521484375,-0.859029233455658,0.15569427609443665,0.7650323510169983
1712835207903595300,13.59359521484375,-0.6427829265594482,0.49411362409591675,0.801073431968689
1712835207923595300,13.61359521484375,-0.0832303911447525,1.1911108493804932,0.4669301211833954
1712835207943595300,13.63359521484375,0.46105054020881653,2.675513505935669,-0.05902485549449921
1712835207963595300,13.65359521484375,1.2160799503326416,5.111032962799072,-0.521449863910675
1712835207983595500,13.673595458984375,1.7799086570739746,5.450063228607178,-1.0883327722549438
1712835208003595500,13.693595458984374,2.0951151847839355,4.122653007507324,-1.6961437463760376
1712835208023595500,13.713595458984376,2.146427869796753,2.94979190826416,-1.707139253616333
1712835208043595500,13.733595458984375,1.9533942937850952,2.036548376083374,-1.7944929599761963
1712835208063595500,13.753595458984375,1.6412421464920044,3.141603708267212,-1.5947400331497192
1712835208083595300,13.77359521484375,1.2985467910766602,3.733531951904297,-2.3277783393859863
1712835208103595300,13.79359521484375,1.0199922323226929,3.4916293621063232,-1.9496527910232544
1712835208123595500,13.813595458984375,0.6742424964904785,2.263179302215576,-1.2465468645095825
1712835208143595500,13.833595458984375,0.437226802110672,-0.36598464846611023,-1.4805083274841309
1712835208163595500,13.853595458984374,0.4622722864151001,-1.1149054765701294,-1.4182000160217285
1712835208183595500,13.873595458984376,0.3620903789997101,-0.45211663842201233,-0.909960150718689
1712835208203595500,13.893595458984375,0.2612976133823395,0.48861584067344666,-0.4524220824241638
1712835208223595300,13.91359521484375,0.10125091671943665,0.9333257079124451,-0.10667234659194946
1712835208243595300,13.93359521484375,-0.07590000331401825,0.6162866950035095,0.2696206569671631
1712835208263595300,13.95359521484375,-0.3153591752052307,-0.1552361249923706,0.79129958152771
1712835208283595300,13.97359521484375,-0.4619668424129486,-1.0489319562911987,1.249448537826538
1712835208303595300,13.99359521484375,-0.6947064995765686,-2.2529473304748535,1.540831208229065
1712835208323595300,14.01359521484375,-0.9934195876121521,-3.1099913120269775,1.9042960405349731
1712835208343595300,14.03359521484375,-1.4564554691314697,-4.337830543518066,1.7845664024353027
1712835208363595300,14.05359521484375,-2.0447187423706055,-5.45388126373291,1.2799917459487915
1712835208383595300,14.07359521484375,-2.027003526687622,-6.014044761657715,1.218294382095337
1712835208403595300,14.09359521484375,-1.3495540618896484,-5.410510063171387,1.4119386672973633
1712835208423595300,14.11359521484375,-1.2078332901000977,-3.5730271339416504,0.6929502487182617
1712835208443595300,14.13359521484375,-1.1045970916748047,-1.3842970132827759,0.44432809948921204
1712835208463595300,14.15359521484375,-0.8064948320388794,-0.19494237005710602,0.27756190299987793
1712835208483595500,14.173595458984375,-0.38866302371025085,-0.5541311502456665,0.223194882273674
1712835208503595500,14.193595458984374,-0.030695978552103043,-1.9279670715332031,-0.29542970657348633
1712835208523595500,14.213595458984376,0.3352122902870178,-1.6946165561676025,-0.5971971154212952
1712835208543595500,14.233595458984375,0.6583600044250488,-0.862618088722229,-0.7321983575820923
1712835208563595500,14.253595458984375,0.7689266204833984,-0.02695442922413349,-0.948444664478302
1712835208583595300,14.27359521484375,0.8080220222473145,0.6639341711997986,-1.0974957942962646
1712835208603595300,14.29359521484375,0.7823656797409058,0.9876927137374878,-0.9960921406745911
1712835208623595500,14.313595458984375,0.6663012504577637,0.6181192994117737,-0.7175375819206238
1712835208643595500,14.333595458984375,0.44516804814338684,-0.24564418196678162,-0.4267657399177551
1712835208663595500,14.353595458984374,0.20570887625217438,-0.8387943506240845,-0.18303050100803375
1712835208683595500,14.373595458984376,-0.02580905705690384,-0.9059895277023315,-0.035811975598335266
1712835208703595500,14.393595458984375,-0.2750420868396759,-0.4979315400123596,0.04726569727063179
1712835208723595300,14.41359521484375,-0.4723515510559082,0.22716552019119263,0.13523028790950775
1712835208743595300,14.43359521484375,-0.5713117122650146,0.7445683479309082,0.24518603086471558
1712835208763595300,14.45359521484375,-0.6550002694129944,0.904615044593811,0.36858081817626953
1712835208783595300,14.47359521484375,-0.7869471311569214,0.6730971336364746,0.5860488414764404
1712835208803595300,14.49359521484375,-0.8712465763092041,0.22655464708805084,0.7039458155632019
1712835208823595300,14.51359521484375,-1.0270172357559204,-0.11308643221855164,0.7497607469558716
1712835208843595300,14.53359521484375,-1.1583532094955444,-0.12591460347175598,0.8157341480255127
1712835208863595300,14.55359521484375,-1.1962268352508545,-0.06666067242622375,0.8713229298591614
1712835208883595300,14.57359521484375,-1.136362075805664,0.18684840202331543,0.810847282409668
1712835208903595300,14.59359521484375,-0.9812023043632507,0.47273334860801697,0.6984480619430542
1712835208923595300,14.61359521484375,-0.7148650288581848,0.7470118403434753,0.7509824633598328
1712835208943595300,14.63359521484375,-0.17302757501602173,0.8129853010177612,0.6062073707580566
1712835208963595300,14.65359521484375,0.34376442432403564,1.5820646286010742,0.1578323096036911
1712835208983595500,14.673595458984375,1.0254900455474854,3.9467239379882812,-0.47258061170578003
1712835209003595500,14.693595458984374,1.800678014755249,5.073159694671631,-0.8574257493019104
1712835209023595500,14.713595458984376,2.222175121307373,4.380438327789307,-1.3962088823318481
1712835209043595500,14.733595458984375,2.361452341079712,3.2961525917053223,-1.5348752737045288
1712835209063595500,14.753595458984375,2.180025339126587,2.8447229862213135,-1.5861879587173462
1712835209083595300,14.77359521484375,1.8128952980041504,2.5710554122924805,-1.5385404825210571
1712835209103595300,14.79359521484375,1.1794281005859375,3.5991415977478027,-1.2092840671539307
1712835209123595500,14.813595458984375,0.8678867816925049,3.6382369995117188,-1.823203682899475
1712835209143595500,14.833595458984375,0.7841982841491699,3.3083698749542236,-1.7224109172821045
1712835209163595500,14.853595458984374,0.355981707572937,2.3315963745117188,-1.2526555061340332
1712835209183595500,14.873595458984376,0.08964447677135468,0.10315986722707748,-1.235551357269287
1712835209203595500,14.893595458984375,-0.04657847434282303,-0.9096547365188599,-0.9136253595352173
1712835209223595300,14.91359521484375,-0.19868391752243042,-0.681191086769104,-0.45120033621788025
1712835209243595300,14.93359521484375,-0.3116939961910248,0.020693060010671616,0.030772335827350616
1712835209263595300,14.95359521484375,-0.35323283076286316,0.0365755558013916,0.36674821376800537
1712835209283595300,14.97359521484375,-0.4179845452308655,-0.529696524143219,0.7344890832901001
1712835209303595300,14.99359521484375,-0.5169447064399719,-1.471039891242981,1.1394927501678467
1712835209323595300,15.01359521484375,-0.7527387142181396,-2.6267969608306885,1.5176182985305786
1712835209343595300,15.03359521484375,-1.2151637077331543,-3.806988477706909,1.7973946332931519
1712835209363595300,15.05359521484375,-1.8602373600006104,-4.885165691375732,1.7271450757980347
1712835209383595300,15.07359521484375,-2.542573928833008,-5.817956924438477,1.2140183448791504
1712835209403595300,15.09359521484375,-2.4973697662353516,-6.8313822746276855,0.8908706307411194
1712835209423595300,15.11359521484375,-1.630552053451538,-7.030524253845215,1.0026589632034302
1712835209443595300,15.13359521484375,-1.1870639324188232,-5.508248329162598,0.5139667391777039
1712835209463595300,15.15359521484375,-0.859029233455658,-3.0812807083129883,0.036880988627672195
1712835209483595500,15.173595458984375,-0.6183483600616455,-0.5962808132171631,-0.3968333303928375
1712835209503595500,15.193595458984374,-0.19013181328773499,0.39271000027656555,-0.16714800894260406
1712835209523595500,15.213595458984376,0.21792617440223694,-0.4539492428302765,-0.44631341099739075
1712835209543595500,15.233595458984375,0.5141957998275757,-1.3250430822372437,-0.7719045877456665
1712835209563595500,15.253595458984375,0.7695375084877014,-1.1814897060394287,-0.9172905087471008
1712835209583595300,15.27359521484375,0.9760099649429321,-0.4533383846282959,-0.9948704242706299
1712835209603595300,15.29359521484375,1.0242682695388794,0.1886810064315796,-1.0638982057571411
1712835209623595500,15.313595458984375,0.9796751141548157,0.40309470891952515,-0.9313403964042664
1712835209643595500,15.333595458984375,0.8147414922714233,0.2283872365951538,-0.6607271432876587
1712835209663595500,15.353595458984374,0.5862779021263123,-0.34093916416168213,-0.48601967096328735
1712835209683595500,15.373595458984376,0.4665483236312866,-0.7153995633125305,-0.3284164369106293
1712835209703595500,15.393595458984375,0.37858372926712036,-0.5657375454902649,-0.15737415850162506
1712835209723595300,15.41359521484375,0.18249599635601044,0.2137264758348465,0.09124799817800522
1712835209743595300,15.43359521484375,-0.03130684420466423,0.7891615629196167,0.24579690396785736
1712835209763595300,15.45359521484375,-0.26404649019241333,1.0548878908157349,0.41317397356033325
1712835209783595300,15.47359521484375,-0.44974952936172485,1.0231229066848755,0.5500078201293945
1712835209803595300,15.49359521484375,-0.5951354503631592,0.8343655467033386,0.687452495098114
1712835209823595300,15.51359521484375,-0.7612907886505127,0.6449973583221436,0.8206210732460022
1712835209843595300,15.53359521484375,-0.9537133574485779,0.5887977480888367,0.9287442564964294
1712835209863595300,15.55359521484375,-1.0337367057800293,0.5161047577857971,0.981889545917511
1712835209883595300,15.57359521484375,-1.0343475341796875,0.3261256814002991,1.0069350004196167
1712835209903595300,15.59359521484375,-1.0661125183105469,0.3487277030944824,1.1028409004211426
1712835209923595300,15.61359521484375,-1.0270172357559204,0.48372891545295715,1.0997865200042725
1712835209943595300,15.63359521484375,-0.8443684577941895,0.31635183095932007,0.9464593529701233
1712835209963595300,15.65359521484375,-0.44974952936172485,0.5594761967658997,0.8670468330383301
1712835209983595500,15.673595458984375,-0.032528575509786606,1.619327425956726,0.6379724144935608
1712835210003595500,15.693595458984374,0.7273877859115601,3.613802433013916,-0.05169447138905525
1712835210023595500,15.713595458984376,1.6455183029174805,5.706626892089844,-0.663781464099884
1712835210043595500,15.733595458984375,2.079843521118164,5.889275550842285,-1.1420888900756836
1712835210063595500,15.753595458984375,2.0676262378692627,4.746957302093506,-1.5825227499008179
1712835210083595300,15.77359521484375,1.998598337173462,4.628449440002441,-1.843973159790039
1712835210103595300,15.79359521484375,1.9088011980056763,4.811098098754883,-2.6179394721984863
1712835210123595500,15.813595458984375,1.1769846677780151,5.172119617462158,-2.8109726905822754
1712835210143595500,15.833595458984375,0.7341073155403137,4.0615668296813965,-1.8934532403945923
1712835210163595500,15.853595458984374,0.08170322328805923,1.617494821548462,-1.5122733116149902
1712835210183595500,15.873595458984376,-0.02886338345706463,-0.8326857089996338,-1.652772307395935
1712835210203595500,15.893595458984375,0.1537853181362152,-1.271286964416504,-1.212949275970459
1712835210223595300,15.91359521484375,0.05726861581206322,-0.5168683528900146,-0.6931029558181763
1712835210243595300,15.93359521484375,0.10735956579446793,-0.028787024319171906,-0.40660718083381653
1712835210263595300,15.95359521484375,-0.019089538604021072,0.21678079664707184,0.02038762718439102
1712835210283595300,15.97359521484375,-0.13271047174930573,0.07628180086612701,0.5267949104309082
1712835210303595300,15.99359521484375,-0.18035796284675598,-0.36048686504364014,0.9800569415092468
1712835210323595300,16.01359521484375,-0.24633140861988068,-0.8901070356369019,1.3783410787582397
1712835210343595300,16.03359521484375,-0.3813326358795166,-1.6341408491134644,1.7265342473983765
1712835210363595300,16.05359521484375,-0.6733261942863464,-2.692159414291382,2.0576231479644775
1712835210383595300,16.07359521484375,-1.21027672290802,-4.165566444396973,2.321516990661621
1712835210403595300,16.09359521484375,-1.9048305749893188,-5.908364772796631,1.882915735244751
1712835210423595300,16.11359521484375,-2.2707388401031494,-7.918722629547119,1.3374130725860596
1712835210443595300,16.13359521484375,-1.6623170375823975,-8.566850662231445,1.6599498987197876
1712835210463628500,16.153628662109377,-0.9512699246406555,-6.474637031555176,0.848110020160675
1712835210483662000,16.173662109375,-0.8773552179336548,-2.5486061573028564,0.525573194026947
1712835210503695400,16.1936953125,-0.8339837789535522,0.5839108228683472,0.02710714563727379
1712835210523728600,16.213728759765626,-0.27809640765190125,1.134911298751831,0.1272890418767929
1712835210543762000,16.233761962890625,0.09392052888870239,-0.6317110061645508,-0.29909488558769226
1712835210563795200,16.253795166015625,0.5587889552116394,-1.338482141494751,-0.7438048124313354
1712835210583828200,16.273828125,0.9460775256156921,-0.7642687559127808,-0.9759336113929749
1712835210603861800,16.29386181640625,1.0835222005844116,0.19662225246429443,-1.223944902420044
1712835210623895000,16.31389501953125,0.9650143980979919,0.8111526966094971,-1.187903881072998
1712835210643928300,16.33392822265625,0.8355109095573425,0.6523277163505554,-0.9649379849433899
1712835210663961600,16.353961669921876,0.6754642724990845,-0.05688682571053505,-0.6576728224754333
1712835210683995100,16.3739951171875,0.46410486102104187,-0.7636579275131226,-0.38095083832740784
1712835210704028400,16.3940283203125,0.2900082767009735,-0.8198575377464294,-0.11278099566698074
1712835210724061400,16.4140615234375,0.10980302840471268,-0.26458099484443665,0.1370628923177719
1712835210744094700,16.4340947265625,-0.14126259088516235,0.48800498247146606,0.32704198360443115
1712835210764128300,16.454128173828124,-0.4265366494655609,0.989525318145752,0.505414605140686
1712835210784161500,16.47416162109375,-0.7209737300872803,1.0585530996322632,0.667904794216156
1712835210804195000,16.494195068359375,-0.9133962392807007,0.7256315350532532,0.7931321859359741
1712835210824228400,16.514228271484374,-1.0123564004898071,0.24182628095149994,0.9104182720184326
1712835210844261600,16.53426171875,-1.021519422531128,-0.12286027520895004,0.9770026206970215
1712835210864295000,16.554294921875,-1.0062477588653564,-0.3177262842655182,1.0197631120681763
1712835210884328200,16.574328125,-1.105207920074463,-0.397138774394989,0.9177486896514893
1712835210904361700,16.59436181640625,-1.0471757650375366,-0.2719113826751709,0.8358927369117737
1712835210924395000,16.61439501953125,-0.8596401214599609,0.3255148231983185,0.7870234847068787
1712835210944428300,16.63442822265625,-0.4723515510559082,1.3401620388031006,0.6660721898078918
1712835210964461600,16.654461669921876,0.05726861581206322,2.547842502593994,0.11507174372673035
1712835210984494800,16.674494873046875,0.6950119137763977,4.365166664123535,-0.3461315333843231
1712835211004528400,16.6945283203125,1.2594513893127441,6.147060394287109,-0.4896848499774933
1712835211024561700,16.714561767578125,1.859321117401123,6.031607151031494,-0.7517460584640503
1712835211044595000,16.734594970703125,2.104278087615967,5.0389509201049805,-0.8537605404853821
1712835211064595000,16.754594970703124,1.7683022022247314,4.949153900146484,-1.5446491241455078
1712835211084594700,16.7745947265625,1.4482088088989258,4.535598278045654,-2.39619517326355
1712835211104594700,16.7945947265625,1.068861484527588,2.957122325897217,-1.6478853225708008
1712835211124594700,16.8145947265625,0.38347065448760986,0.05123632401227951,-1.1659126281738281
1712835211144594700,16.8345947265625,0.2838996350765228,-0.37026068568229675,-1.015028953552246
1712835211164594700,16.8545947265625,0.2301434874534607,0.2528218626976013,-0.140269935131073
1712835211184594700,16.8745947265625,-0.03741549700498581,0.4159228801727295,0.40217840671539307
1712835211204594700,16.8945947265625,-0.18707747757434845,-0.9059895277023315,0.516410231590271
1712835211224594700,16.9145947265625,-0.31352660059928894,-2.552882194519043,0.8047385811805725
1712835211244594700,16.9345947265625,-0.6604980230331421,-3.7263543605804443,1.2317334413528442
1712835211264595000,16.954594970703123,-1.1314750909805298,-4.763603687286377,1.5933656692504883
1712835211284595000,16.974594970703127,-1.7771596908569336,-5.833839416503906,1.504790186882019
1712835211304595000,16.994594970703126,-2.2243130207061768,-6.512510776519775,1.344132661819458
1712835211324595000,17.014594970703126,-1.6299412250518799,-6.695159435272217,1.2390637397766113
1712835211344595000,17.034594970703125,-1.0086911916732788,-5.797187328338623,0.657520055770874
1712835211364594700,17.0545947265625,-0.5914703011512756,-3.499112367630005,0.49991685152053833
1712835211384594700,17.0745947265625,-0.3672827184200287,-1.4386639595031738,-0.24900394678115845
1712835211404594700,17.0945947265625,-0.1644754707813263,-0.843070387840271,-0.6106361746788025
1712835211424594700,17.1145947265625,0.21181751787662506,0.047571130096912384,-0.7193701863288879
1712835211444594700,17.1345947265625,0.5123631954193115,0.7806094288825989,-0.8268824815750122
1712835211464594700,17.1545947265625,0.7139487266540527,1.1178070306777954,-1.0205267667770386
1712835211484594700,17.1745947265625,0.8324565887451172,1.3322207927703857,-1.0858893394470215
1712835211504594700,17.1945947265625,0.9595165848731995,0.9473756551742554,-0.7908414006233215
1712835211524594700,17.2145947265625,0.7835873961448669,0.026801712810993195,-0.5061782002449036
1712835211544594700,17.2345947265625,0.49464812874794006,-0.6280458569526672,-0.22212587296962738
1712835211564594700,17.2545947265625,0.24663683772087097,-0.9750173091888428,0.06253732740879059
1712835211584594700,17.2745947265625,-0.0032070425804704428,-0.8516225218772888,0.2653445899486542
1712835211604594700,17.2945947265625,-0.28725937008857727,-0.1851685345172882,0.3197115957736969
1712835211624594700,17.3145947265625,-0.4674646258354187,0.5014439821243286,0.34231361746788025
1712835211644594700,17.3345947265625,-0.5450445413589478,0.7714464664459229,0.45349109172821045
1712835211664594700,17.3545947265625,-0.5621487498283386,0.6743188500404358,0.5878814458847046
1712835211684595000,17.374594970703125,-0.5248859524726868,0.40248385071754456,0.65874183177948
1712835211704595000,17.394594970703125,-0.5285511612892151,0.29802587628364563,0.6605743765830994
1712835211724595000,17.414594970703124,-0.6079636216163635,0.6156758069992065,0.7033349871635437
1712835211744595000,17.434594970703124,-0.7686212062835693,0.9687559008598328,0.7094436287879944
1712835211764595200,17.45459521484375,-0.9451612234115601,1.0732139348983765,0.6080399751663208
1712835211784595200,17.47459521484375,-1.0141890048980713,0.8795695900917053,0.6245333552360535
1712835211804595200,17.49459521484375,-0.803440511226654,0.5594761967658997,0.6538549065589905
1712835211824595200,17.51459521484375,-0.3013092875480652,0.429972767829895,0.6605743765830994
1712835211844595200,17.53459521484375,0.07437284290790558,1.2485321760177612,0.05948300287127495
1712835211864595000,17.554594970703125,0.5997169613838196,3.4360406398773193,-0.5055673718452454
1712835211884595000,17.574594970703124,1.260062336921692,5.3071208000183105,-0.8067238926887512
1712835211904595000,17.594594970703124,1.9210184812545776,5.196554183959961,-1.0028116703033447
1712835211924595000,17.614594970703124,1.941787838935852,4.196568012237549,-1.3381767272949219
1712835211944595000,17.634594970703127,1.8422168493270874,3.9949822425842285,-1.8317557573318481
1712835211964595000,17.654594970703126,1.2814425230026245,4.32240629196167,-2.4432318210601807
1712835211984595000,17.674594970703126,0.6058256030082703,2.7133870124816895,-1.0046442747116089
1712835212004595000,17.694594970703125,-0.005039638374000788,0.14347697794437408,-0.5984188914299011
1712835212024595000,17.714594970703125,-0.13454307615756989,-1.0000628232955933,-0.8959102630615234
1712835212044595000,17.734594970703125,0.10186178237199783,-1.0483211278915405,-0.3424663245677948
1712835212064595000,17.754594970703124,-0.20234911143779755,-0.6390414237976074,0.5103015303611755
1712835212084595000,17.774594970703124,-0.4021020531654358,-1.2737303972244263,1.1779773235321045
1712835212104595000,17.794594970703123,-0.6336199641227722,-2.885803699493408,1.474246859550476
1712835212124595000,17.814594970703126,-1.249372124671936,-4.16312313079834,1.7051539421081543
1712835212144595000,17.834594970703126,-1.961030125617981,-5.289558410644531,1.5579354763031006
1712835212164595000,17.854594970703126,-2.2908973693847656,-6.144158840179443,1.4058300256729126
1712835212184595000,17.874594970703125,-1.3293955326080322,-6.612082004547119,1.476690411567688
1712835212204595000,17.894594970703125,-0.5352706909179688,-6.319477081298828,0.4101196527481079
1712835212224595000,17.914594970703124,-0.1950187236070633,-3.817373275756836,0.048487428575754166
1712835212244595000,17.934594970703124,0.3449861407279968,-0.36476290225982666,-0.21235203742980957
1712835212264595200,17.95459521484375,0.4115704596042633,0.9363800883293152,-0.6185774207115173
1712835212284595200,17.97459521484375,0.5123631954193115,0.9284388422966003,-0.8702539205551147
1712835212304595200,17.99459521484375,0.6803511381149292,0.45746171474456787,-0.9460011720657349
1712835212324595200,18.01459521484375,0.7658722996711731,0.45440739393234253,-0.9832639694213867
1712835212344595200,18.03459521484375,0.8141306638717651,0.5967389941215515,-0.8824712038040161
1712835212364595000,18.054594970703125,0.8287914395332336,0.37743836641311646,-0.6851617097854614
1712835212384595000,18.074594970703124,0.5514585971832275,0.19906571507453918,-0.3937790095806122
1712835212404595000,18.094594970703124,0.29917123913764954,0.05245805159211159,-0.10789407044649124
1712835212424595000,18.114594970703124,0.16722436249256134,-0.11308643221855164,0.132786825299263
1712835212444595000,18.134594970703127,-0.08017606288194656,-0.0037415495608001947,0.3355940878391266
1712835212464595000,18.154594970703126,-0.33246341347694397,0.2241111844778061,0.3844633102416992
1712835212484595000,18.174594970703126,-0.5572618246078491,0.4660138189792633,0.4406629204750061
1712835212504595000,18.194594970703125,-0.6721044778823853,0.4409683346748352,0.5103015303611755
1712835212524595000,18.214594970703125,-0.6690501570701599,0.1636355221271515,0.5603924989700317
1712835212544595000,18.234594970703125,-0.7344127297401428,-0.21387919783592224,0.6086508631706238
1712835212564595000,18.254594970703124,-0.8455902338027954,-0.44051021337509155,0.6318637132644653
1712835212584595000,18.274594970703124,-0.9017898440361023,-0.5999460220336914,0.5597816109657288
1712835212604595000,18.294594970703123,-0.9738719463348389,-0.4594470262527466,0.5194645524024963
1712835212624595000,18.314594970703126,-0.7087563872337341,-0.04711298272013664,0.4754822254180908
1712835212644595000,18.334594970703126,-0.2817615866661072,0.6914231181144714,0.515188455581665
1712835212664595000,18.354594970703126,0.2405281960964203,1.8135825395584106,0.072311170399189
1712835212684595000,18.374594970703125,0.9198103547096252,3.906406879425049,-0.3064252734184265
1712835212704595000,18.394594970703125,1.687667965888977,5.649205207824707,-0.5092325210571289
1712835212724595000,18.414594970703124,2.3015875816345215,5.439067840576172,-0.8482627272605896
1712835212744595000,18.434594970703124,2.553874969482422,4.264984607696533,-0.8329911231994629
1712835212764595200,18.45459521484375,2.696817398071289,4.163581371307373,-0.8659778237342834
1712835212784595200,18.47459521484375,2.079232692718506,4.628449440002441,-1.9404897689819336
1712835212804595200,18.49459521484375,1.440267562866211,3.7243690490722656,-0.899575412273407
1712835212824595200,18.51459521484375,0.6015495657920837,1.2405909299850464,-0.625296950340271
1712835212844595200,18.53459521484375,-0.07223481684923172,-0.2554180324077606,-0.8171086311340332
1712835212864595000,18.554594970703125,-0.18341228365898132,-0.5351943373680115,-0.7053202986717224
1712835212884595000,18.574594970703124,-0.47968193888664246,0.05490151420235634,0.0020616701804101467
1712835212904595000,18.594594970703124,-0.6397286057472229,-0.5351943373680115,0.4217261075973511
1712835212924595000,18.614594970703124,-0.7619016766548157,-1.9041433334350586,0.6165921092033386
1712835212944595000,18.634594970703127,-1.0862711668014526,-2.9957594871520996,1.2323442697525024
1712835212964595000,18.654594970703126,-1.5456417798995972,-4.169842720031738,1.560378909111023
1712835212984595000,18.674594970703126,-2.247525930404663,-5.120348930358887,1.3392456769943237
1712835213004595000,18.694594970703125,-2.543184757232666,-5.590104103088379,1.0674107074737549
1712835213024595000,18.714594970703125,-1.9665279388427734,-6.100176811218262,0.819399356842041
1712835213044595000,18.734594970703125,-1.4350751638412476,-5.786191940307617,0.42905646562576294
1712835213064595000,18.754594970703124,-0.554818332195282,-3.496058225631714,0.25618159770965576
1712835213084595000,18.774594970703124,-0.14065171778202057,-1.098412036895752,-0.1958586722612381
1712835213104595000,18.794594970703123,0.0065668015740811825,0.29252809286117554,-0.501902163028717
1712835213124595000,18.814594970703126,0.4885394871234894,0.9687559008598328,-0.557490885257721
1712835213144595000,18.834594970703126,0.6467535495758057,1.3071752786636353,-0.7896196842193604
1712835213164595000,18.854594970703126,0.831234872341156,1.5234215259552002,-0.9557750225067139
1712835213184595000,18.874594970703125,0.9137017130851746,1.569236397743225,-1.0015898942947388
1712835213204595000,18.894594970703125,0.8342891931533813,1.1562916040420532,-0.6979898810386658
1712835213224595000,18.914594970703124,0.6137668490409851,0.06650795042514801,-0.37606391310691833
1712835213244595000,18.934594970703124,0.3065016269683838,-0.8589528799057007,0.05581781268119812
1712835213264595200,18.95459521484375,0.09636399149894714,-1.2193633317947388,0.3954588770866394
1712835213284595200,18.97459521484375,-0.033139441162347794,-0.9921215176582336,0.5335144400596619
1712835213304595200,18.99459521484375,-0.26832255721092224,-0.32566753029823303,0.6062073707580566
1712835213324595200,19.01459521484375,-0.5389358401298523,0.2338850349187851,0.6159812211990356
1712835213344595200,19.03459521484375,-0.6476698517799377,0.33712124824523926,0.600098729133606
1712835213364595000,19.054594970703125,-0.6372851729393005,0.02802344225347042,0.5603924989700317
1712835213384595000,19.074594970703124,-0.6159048676490784,-0.17172949016094208,0.5762749910354614
1712835213404595000,19.094594970703124,-0.5951354503631592,-0.14362968504428864,0.5292384028434753
1712835213424595000,19.114594970703124,-0.6464481353759766,-0.21510092914104462,0.40217840671539307
1712835213444595000,19.134594970703127,-0.7380779385566711,-0.01840231567621231,0.3197115957736969
1712835213464595000,19.154594970703126,-0.41431936621665955,0.4623486399650574,0.2793944776058197
1712835213484595000,19.174594970703126,0.02428189292550087,1.6119970083236694,-0.2166280895471573
1712835213504595000,19.194594970703125,0.5539020895957947,2.9705612659454346,-0.7462482452392578
1712835213524595000,19.214594970703125,0.9778425693511963,4.481842041015625,-1.1463650465011597
1712835213544595000,19.234594970703125,1.4268285036087036,5.2344279289245605,-1.6643787622451782
1712835213564595000,19.254594970703124,1.7817412614822388,5.610110282897949,-1.7297413349151611
1712835213584595000,19.274594970703124,1.545336365699768,4.869741439819336,-2.561739683151245
1712835213604595000,19.294594970703123,0.9118691086769104,4.340121269226074,-2.536694288253784
1712835213624595000,19.314594970703126,0.8904888033866882,2.4684300422668457,-1.9508745670318604
1712835213644595000,19.334594970703126,0.29794952273368835,0.5374850630760193,-1.2379947900772095
1712835213664595000,19.354594970703126,0.06398813426494598,-0.5461899042129517,-1.0596221685409546
1712835213684595000,19.374594970703125,-0.02580905705690384,-0.30550897121429443,-0.6478989720344543
1712835213704595000,19.394594970703125,-0.12049316614866257,0.42752930521965027,-0.005268712528049946
1712835213724595000,19.414594970703124,-0.098502017557621,0.4867832362651825,0.6550766229629517
1712835213744595000,19.434594970703124,-0.1950187236070633,-0.24564418196678162,1.0038806200027466
1712835213764595200,19.45459521484375,-0.3196352422237396,-1.2657891511917114,1.4681382179260254
1712835213784595200,19.47459521484375,-0.46013423800468445,-2.5877015590667725,1.9006308317184448
1712835213804595200,19.49459521484375,-0.9647089242935181,-4.110588550567627,1.8835266828536987
1712835213824595200,19.51459521484375,-1.5517504215240479,-5.301775932312012,1.6685020923614502
1712835213844595200,19.53459521484375,-2.135737657546997,-6.391559600830078,1.7857881784439087
1712835213864595000,19.554594970703125,-1.204779028892517,-6.343301296234131,1.4907402992248535
1712835213884595000,19.574594970703124,-0.5798638463020325,-4.276133060455322,0.4828126132488251
1712835213904595000,19.594594970703124,-0.11804971098899841,-1.538235068321228,-0.005268712528049946
1712835213924595000,19.614594970703124,0.12751811742782593,-0.25969409942626953,-0.19891299307346344
1712835213944595000,19.634594970703127,0.33276882767677307,-0.27802005410194397,-0.4133267104625702
1712835213964595000,19.654594970703126,0.40912699699401855,-0.07521278411149979,-0.8281041979789734
1712835213984595000,19.674594970703126,0.5710062980651855,0.3249039649963379,-1.110934853553772
1712835214004595000,19.694594970703125,0.6614143252372742,0.8032114505767822,-1.0492373704910278
1712835214024595000,19.714594970703125,0.7420485615730286,0.7793877124786377,-0.8507062196731567
1712835214044595000,19.734594970703125,0.7903069257736206,0.050014592707157135,-0.5342780351638794
1712835214064595000,19.754594970703124,0.517861008644104,-0.4093560576438904,-0.15615242719650269
1712835214084595000,19.774594970703124,0.294895201921463,-0.7514405846595764,0.16210836172103882
1712835214104595000,19.794594970703123,0.04932736977934837,-0.719675600528717,0.41806089878082275
1712835214124595000,19.814594970703126,-0.3306308090686798,-0.2560288906097412,0.5933791995048523
1712835214144595000,19.834594970703126,-0.5444336533546448,-0.03611740842461586,0.5988770127296448
1712835214164595000,19.854594970703126,-0.6452264189720154,-0.246865913271904,0.5982661247253418
1712835214184595000,19.874594970703125,-0.7680103182792664,-0.3287218511104584,0.6526331305503845
1712835214204595000,19.894594970703125,-0.9439395070075989,-0.3268892765045166,0.7515933513641357
1712835214224595000,19.914594970703124,-0.9372199773788452,-0.4179081916809082,0.7271587252616882
1712835214244596000,19.934595947265624,-0.7246388792991638,-0.4130212664604187,0.7039458155632019
1712835214264596200,19.95459619140625,-0.5364924073219299,0.17829629778862,0.735710859298706
1712835214284596200,19.97459619140625,-0.3819434940814972,0.8710174560546875,0.4669301211833954
1712835214304596200,19.99459619140625,0.07987063378095627,1.7494417428970337,-0.012599095702171326
1712835214324596200,20.01459619140625,1.1635456085205078,3.702988862991333,-0.5379431843757629
1712835214344596700,20.0345966796875,1.5471689701080322,5.090263843536377,-1.2447142601013184
1712835214364596500,20.054596435546873,1.8782578706741333,5.003520965576172,-1.8012125492095947
1712835214384596500,20.074596435546876,1.8764252662658691,5.123861312866211,-2.0437259674072266
1712835214404596500,20.094596435546876,1.705383062362671,4.604625701904297,-2.7743208408355713
1712835214424596500,20.114596435546876,1.6479617357254028,3.7402515411376953,-2.4236841201782227
1712835214444596000,20.134595947265623,0.7304421067237854,2.263179302215576,-1.1445324420928955
1712835214464596000,20.154595947265626,0.4017966091632843,-0.07399105280637741,-1.016250729560852
1712835214484596000,20.174595947265626,0.25641068816185,-0.00557414535433054,-0.7523568868637085
1712835214504596000,20.194595947265626,-0.078343465924263,0.8282569050788879,-0.1152244582772255
1712835214524596000,20.214595947265625,-0.11743884533643723,1.2705233097076416,0.3814089894294739
1712835214544596000,20.234595947265625,-0.10461067408323288,-0.0697149932384491,0.4913647174835205
1712835214564596000,20.254595947265624,-0.12049316614866257,-1.4899766445159912,0.9794460535049438
1712835214584596000,20.274595947265624,-0.2047925740480423,-2.4588088989257812,1.4760794639587402
1712835214604596000,20.294595947265623,-0.48456886410713196,-3.1692452430725098,1.9299523830413818
1712835214624596000,20.314595947265627,-1.033125877380371,-4.048280239105225,1.9849302768707275
1712835214644595700,20.334595703125,-1.7062993049621582,-4.841794490814209,1.7430275678634644
1712835214664595700,20.354595703125,-1.6262760162353516,-5.445329189300537,1.6788867712020874
1712835214684595700,20.374595703125,-1.0459539890289307,-5.342092990875244,1.0906234979629517
1712835214704595700,20.394595703125,-0.8822421431541443,-4.233983516693115,0.4015675485134125
1712835214724595700,20.414595703125,-0.671493649482727,-2.636570692062378,0.13889548182487488
1712835214744595700,20.434595703125,-0.22800545394420624,-1.8729891777038574,-0.13782647252082825
1712835214764596000,20.454595947265624,0.10247264802455902,-1.4911984205245972,-0.4597524404525757
1712835214784596200,20.47459619140625,0.42378777265548706,-0.07643451541662216,-0.6869943141937256
1712835214804596200,20.49459619140625,0.5905539989471436,0.7262424230575562,-0.8775842785835266
1712835214824596200,20.51459619140625,0.7286095023155212,1.2265410423278809,-0.9411142468452454
1712835214844595200,20.53459521484375,0.7579310536384583,1.2302062511444092,-0.8568148612976074
1712835214864595200,20.55459521484375,0.7163922190666199,0.6071236729621887,-0.708985447883606
1712835214884595200,20.57459521484375,0.528245747089386,-0.2016618847846985,-0.4896848499774933
1712835214904595200,20.59459521484375,0.23808473348617554,-0.6671411991119385,-0.2465604841709137
1712835214924595200,20.61459521484375,-0.05757404863834381,-0.7581601142883301,-0.11278099566698074
1712835214944594400,20.634594482421875,-0.36850446462631226,-0.3727041482925415,-0.021151209250092506
1712835214964594000,20.654593994140626,-0.5823072791099548,0.15508341789245605,0.024052819237113
1712835214984594200,20.67459423828125,-0.6769914031028748,0.5216025710105896,0.11812606453895569
1712835215004594200,20.69459423828125,-0.8113817572593689,0.7140251398086548,0.2842814028263092
1712835215024594200,20.71459423828125,-0.9970847964286804,0.724409818649292,0.5390121936798096
1712835215044594700,20.7345947265625,-1.1100949048995972,0.42752930521965027,0.6843981742858887
1712835215064594700,20.7545947265625,-1.03984534740448,-0.037950001657009125,0.735710859298706
1712835215084594700,20.7745947265625,-1.0575604438781738,0.0005345070967450738,0.9324094653129578
1712835215104594700,20.7945947265625,-0.8272642493247986,-0.04283692687749863,0.9550114274024963
1712835215124594700,20.8145947265625,-0.39904773235321045,0.37866008281707764,0.76136714220047
1712835215144594700,20.8345947265625,0.07925976812839508,1.4678328037261963,0.32704198360443115
1712835215164594700,20.8545947265625,0.9259189963340759,3.6852736473083496,0.14378240704536438
1712835215184594700,20.8745947265625,1.914909839630127,5.559408187866211,-0.42065706849098206
1712835215204594700,20.8945947265625,2.4408648014068604,6.017557144165039,-0.8757516741752625
1712835215224594700,20.9145947265625,2.818990468978882,3.605250358581543,-1.1317042112350464
1712835215244595000,20.934594970703124,2.89229416847229,2.178879976272583,-1.340009331703186
1712835215264595200,20.95459521484375,2.509281635284424,2.615037679672241,-1.4365259408950806
1712835215284595200,20.97459521484375,2.4689645767211914,2.6541330814361572,-1.7089718580245972
1712835215304595200,20.99459521484375,1.4928019046783447,2.7445411682128906,-0.8164977431297302
1712835215324595200,21.01459521484375,0.547182559967041,1.3364968299865723,-0.76762855052948
1712835215344595200,21.03459521484375,0.12751811742782593,0.12942707538604736,-0.6081926822662354
1712835215364595000,21.054594970703125,-0.3000875413417816,0.053068917244672775,-0.059635721147060394
1712835215384594700,21.0745947265625,-0.7325801253318787,0.3145192563533783,0.10285443812608719
1712835215404594700,21.0945947265625,-1.0618364810943604,0.09460775554180145,0.2836705446243286
1712835215424594700,21.1145947265625,-1.3886494636535645,-1.3531428575515747,0.8829293251037598
1712835215444594700,21.1345947265625,-1.5212072134017944,-3.340898275375366,0.9098074436187744
1712835215464594700,21.1545947265625,-1.8138116598129272,-4.568126678466797,0.5921574831008911
1712835215484594700,21.1745947265625,-1.8907806873321533,-5.075755596160889,0.9757808446884155
1712835215504594700,21.1945947265625,-1.8803958892822266,-4.762992858886719,1.1743121147155762
1712835215524594700,21.2145947265625,-1.6727017164230347,-4.079434394836426,0.7027240991592407
1712835215544594700,21.2345947265625,-1.6244434118270874,-2.312812089920044,0.2500729560852051
1712835215564595200,21.25459521484375,-1.4986051321029663,-1.0672580003738403,0.35697436332702637
1712835215584595000,21.274594970703124,-0.7637342810630798,-1.9401843547821045,0.23174700140953064
1712835215604595000,21.294594970703123,-0.2958115041255951,-3.027524471282959,-0.2606103718280792
1712835215624595000,21.314594970703126,0.1336267739534378,-2.039144515991211,-0.5599343776702881
1712835215644595000,21.334594970703126,0.456163614988327,-0.5425246953964233,-0.787176251411438
1712835215664595000,21.354594970703126,0.5905539989471436,0.49411362409591675,-1.0351874828338623
1712835215684595000,21.374594970703125,0.5630650520324707,1.14163076877594,-1.0486265420913696
1712835215704595000,21.394594970703125,0.48976120352745056,1.2442561388015747,-0.7932848930358887
1712835215724595000,21.414594970703124,0.44944411516189575,0.28641945123672485,-0.4902957081794739
1712835215744595000,21.434594970703124,0.45433104038238525,-0.30550897121429443,-0.3888920843601227
1712835215764595200,21.45459521484375,0.48548516631126404,-0.3024546504020691,-0.3381902575492859
1712835215784595200,21.47459521484375,0.42562034726142883,0.22227859497070312,-0.25328001379966736
1712835215804595200,21.49459521484375,0.26679539680480957,0.9400452375411987,-0.11278099566698074
1712835215824595200,21.51459521484375,0.11102475970983505,1.256473422050476,0.07903069257736206
1712835215844595200,21.53459521484375,-0.07162395119667053,1.1715631484985352,0.2891683280467987
1712835215864595000,21.554594970703125,-0.290313720703125,0.8380307555198669,0.5610033869743347
1712835215884595000,21.574594970703124,-0.4821254014968872,0.39332085847854614,0.7583128213882446
1712835215904595000,21.594594970703124,-0.7154759168624878,0.1471421718597412,0.8572730422019958
1712835215924595000,21.614594970703124,-0.9702067375183105,0.14592044055461884,0.9660070538520813
1712835215944595000,21.634594970703127,-1.0355693101882935,0.17463110387325287,1.0057132244110107
1712835215964595000,21.654594970703126,-1.0337367057800293,0.26748260855674744,1.1199450492858887
1712835215984595000,21.674594970703126,-0.9995282292366028,0.12026409804821014,1.1199450492858887
1712835216004595000,21.694594970703125,-0.7038694620132446,-0.16623170673847198,1.1120038032531738
1712835216024595000,21.714594970703125,-0.3727805018424988,0.13492485880851746,1.0881800651550293
1712835216044595000,21.734594970703125,-0.07467827945947647,0.6071236729621887,0.7680866718292236
1712835216064595000,21.754594970703124,0.2802344262599945,1.9296469688415527,0.3203224539756775
1712835216084595000,21.774594970703124,0.8202393054962158,3.5594353675842285,-0.04314235970377922
1712835216104595000,21.794594970703123,1.332755208015442,4.631504058837891,-0.5409975051879883
1712835216124595000,21.814594970703126,1.458593487739563,4.414035797119141,-0.9802096486091614
1712835216144595000,21.834594970703126,1.572825312614441,3.1684815883636475,-1.6949219703674316
1712835216164595000,21.854594970703126,1.4738651514053345,2.1025218963623047,-2.173840284347534
1712835216184595000,21.874594970703125,1.817171335220337,1.44461989402771,-3.057762384414673
1712835216204595000,21.894594970703125,1.517236590385437,0.58146733045578,-1.6839264631271362
1712835216224595000,21.914594970703124,0.8856018781661987,-0.04222606122493744,-1.186682105064392
1712835216244595000,21.934594970703124,0.8104654550552368,0.1172097697854042,-1.0266354084014893
1712835216264595200,21.95459521484375,0.660803496837616,1.1837804317474365,-0.577038586139679
1712835216284595200,21.97459521484375,0.456163614988327,1.9870682954788208,-0.08590292185544968
1712835216304595200,21.99459521484375,0.365755558013916,1.2583060264587402,0.1932624876499176
1712835216324595200,22.01459521484375,0.30344730615615845,0.055512379854917526,0.4168391823768616
1712835216344595200,22.03459521484375,0.13668109476566315,-0.6946301460266113,0.6141486167907715
1712835216364595000,22.054594970703125,-0.04230241850018501,-1.0379364490509033,0.8157341480255127
1712835216384595000,22.074594970703124,-0.4314235746860504,-1.1546117067337036,1.143157958984375
1712835216404595000,22.094594970703124,-0.926224410533905,-1.489365816116333,1.5072336196899414
1712835216424595000,22.114594970703124,-1.3416128158569336,-2.343966245651245,1.236620306968689
1712835216444595000,22.134594970703127,-2.334268808364868,-3.3115768432617188,1.3203089237213135
1712835216464595000,22.154594970703126,-3.470478057861328,-4.901048183441162,1.5646549463272095
1712835216484595000,22.174594970703126,-3.6836700439453125,-7.272427082061768,0.9043096303939819
1712835216504595000,22.194594970703125,-2.9744555950164795,-7.919333457946777,0.516410231590271
1712835216524595000,22.214594970703125,-2.009899377822876,-6.365292072296143,0.33131805062294006
1712835216544595000,22.234594970703125,-0.9250026941299438,-5.262680530548096,-0.4084397852420807
1712835216564595000,22.254594970703124,0.2942843437194824,-2.4368178844451904,-0.24411702156066895
1712835216584595000,22.274594970703124,0.7609853744506836,-0.22487476468086243,0.033826664090156555
1712835216604595000,22.294594970703123,0.831234872341156,1.6144404411315918,-0.5556582808494568
1712835216624595000,22.314594970703126,0.8581129312515259,2.7445411682128906,-0.9209557175636292
1712835216644595000,22.334594970703126,0.9295842051506042,2.818455934524536,-0.9014080166816711
1712835216664595000,22.354594970703126,0.9656252264976501,1.778152346611023,-0.7401396036148071
1712835216684595000,22.374594970703125,0.9149234294891357,0.2851977050304413,-0.6271295547485352
1712835216704595000,22.394594970703125,0.9356928467750549,-0.9414197206497192,-0.60513836145401
1712835216724595000,22.414594970703124,0.944855809211731,-1.2364675998687744,-0.5898667573928833
1712835216744595000,22.434594970703124,0.8458956480026245,-0.8980482816696167,-0.4078288972377777
1712835216764595200,22.45459521484375,0.6388123035430908,-0.26946792006492615,-0.16409367322921753
1712835216784595200,22.47459521484375,0.40851613879203796,0.25709789991378784,0.018555032089352608
1712835216804595200,22.49459521484375,0.16050484776496887,0.5124396085739136,0.11812606453895569
1712835216824595200,22.51459521484375,-0.13148874044418335,0.5936846733093262,0.17676913738250732
1712835216844595200,22.53459521484375,-0.42409318685531616,0.6718754172325134,0.3136029541492462
1712835216864595000,22.554594970703125,-0.6018549799919128,0.7311293482780457,0.4901430010795593
1712835216884595000,22.574594970703124,-0.7099781036376953,0.6437755823135376,0.6037639379501343
1712835216904595000,22.594594970703124,-0.8865181803703308,0.5197699666023254,0.6862307190895081
1712835216924595000,22.614594970703124,-1.0502300262451172,0.27175867557525635,0.7363216876983643
1712835216944595000,22.634594970703127,-1.1021536588668823,-0.002519819187000394,0.7784714102745056
1712835216964595000,22.654594970703126,-0.8969029188156128,-0.06849326193332672,0.7760279178619385
1712835216984595000,22.674594970703126,-0.9298896193504333,-0.34093916416168213,0.8139016032218933
1712835217004595000,22.694594970703125,-0.8058840036392212,-0.12469286471605301,0.7045567035675049
1712835217024595000,22.714594970703125,-0.40454551577568054,0.685925304889679,0.37774381041526794
1712835217044595000,22.734594970703125,-0.04352414980530739,2.3279311656951904,-0.024205535650253296
1712835217064595000,22.754594970703124,0.46410486102104187,4.390212059020996,-0.4890739917755127
1712835217084595000,22.774594970703124,0.9863946437835693,4.955262660980225,-1.204397201538086
1712835217104595000,22.794594970703123,1.31748366355896,4.017584323883057,-1.7132478952407837
1712835217124595000,22.814594970703126,1.684613585472107,3.0487520694732666,-1.8647425174713135
1712835217144595000,22.834594970703126,1.69622004032135,2.4036784172058105,-1.9398789405822754
1712835217164595000,22.854594970703126,1.6895005702972412,3.272939682006836,-1.9184986352920532
1712835217184595000,22.874594970703125,1.2038626670837402,3.9161806106567383,-2.421851634979248
1712835217204595000,22.894594970703125,0.9344711303710938,3.5783722400665283,-1.8726837635040283
1712835217224595000,22.914594970703124,0.5960517525672913,2.0072269439697266,-1.1451432704925537
1712835217244595000,22.934594970703124,0.3871358633041382,-0.2853504419326782,-1.0186941623687744
1712835217264595200,22.95459521484375,0.3871358633041382,-1.003727912902832,-0.5776494741439819
1712835217284595200,22.97459521484375,0.164170041680336,-0.20777054131031036,0.13339769840240479
1712835217304595200,22.99459521484375,0.13240504264831543,0.3438407778739929,0.5500078201293945
1712835217324595200,23.01459521484375,0.02428189292550087,-0.11430815607309341,0.9391289353370667
1712835217344595200,23.03459521484375,-0.07284568250179291,-1.451492190361023,1.2231812477111816
1712835217364595000,23.054594970703125,-0.3471241891384125,-2.90718412399292,1.5970308780670166
1712835217384595000,23.074594970703124,-0.8162686824798584,-4.255974292755127,1.846874713897705
1712835217404595000,23.094594970703124,-1.5584700107574463,-4.982903957366943,1.6232980489730835
1712835217424595000,23.114594970703124,-2.121687650680542,-5.34697961807251,1.4149929285049438
1712835217444595000,23.134594970703127,-2.1290180683135986,-5.389129638671875,1.5347225666046143
1712835217464595000,23.154594970703126,-1.621999979019165,-4.433736324310303,1.1297188997268677
1712835217484595000,23.174594970703126,-1.4161384105682373,-2.973768472671509,0.7289913296699524
1712835217504595000,23.194594970703125,-0.9805914163589478,-1.7471510171890259,0.3203224539756775
1712835217524595000,23.214594970703125,-0.5462662577629089,-1.6591863632202148,0.045433104038238525
1712835217544595000,23.234594970703125,-0.15042556822299957,-1.9994382858276367,-0.18486309051513672
1712835217564595000,23.254594970703124,0.244804248213768,-1.441718339920044,-0.42615485191345215
1712835217584595000,23.274594970703124,0.5539020895957947,-0.4429536461830139,-0.6827182769775391
1712835217604595000,23.294594970703123,0.6907358765602112,0.9418778419494629,-0.8617017865180969
1712835217624595000,23.314594970703126,0.7102835774421692,1.437900424003601,-0.8873581290245056
1712835217644595000,23.334594970703126,0.6638578176498413,1.2008846998214722,-0.7370852828025818
1712835217664595000,23.354594970703126,0.6687447428703308,0.34628424048423767,-0.5495496392250061
1712835217684595000,23.374594970703125,0.5624541640281677,-0.5278639197349548,-0.2569451928138733
1712835217704595000,23.394594970703125,0.38469240069389343,-0.9371436238288879,-0.008933904580771923
1712835217724595000,23.414594970703124,0.1690569519996643,-0.8601745963096619,0.12606731057167053
1712835217744595000,23.434594970703124,-0.14187344908714294,-0.3782019317150116,0.2390773892402649
1712835217764595200,23.45459521484375,-0.36789360642433167,0.17157678306102753,0.26656633615493774
1712835217784595200,23.47459521484375,-0.5041165351867676,0.5881868600845337,0.33131805062294006
1712835217804595200,23.49459521484375,-0.6385068893432617,0.792215883731842,0.4956407845020294
1712835217824595200,23.51459521484375,-0.755182147026062,0.6217844486236572,0.6495788097381592
1712835217844595200,23.53459521484375,-0.7692320346832275,0.05123632401227951,0.6862307190895081
1712835217864595000,23.554594970703125,-0.7851145267486572,-0.36964982748031616,0.7509824633598328
1712835217884595000,23.574594970703124,-0.9054549932479858,-0.33421963453292847,0.6880633234977722
1712835217904595000,23.594594970703124,-0.7386888265609741,-0.13202324509620667,0.6031530499458313
1712835217924595000,23.614594970703124,-0.40515637397766113,0.3853796124458313,0.6569092273712158
1712835217944595000,23.634594970703127,-0.26282477378845215,1.0237337350845337,0.6459136605262756
1712835217964595000,23.654594970703126,-0.013591751456260681,2.1080195903778076,0.3740786015987396
1712835217984595000,23.674594970703126,0.5093088746070862,3.1214449405670166,-0.18913915753364563
1712835218004595000,23.694594970703125,1.2661709785461426,4.661436557769775,-0.6570619344711304
1712835218024595000,23.714594970703125,1.7004960775375366,4.841641426086426,-1.1372020244598389
1712835218044595000,23.734594970703125,1.9686659574508667,3.337080478668213,-1.7676149606704712
1712835218064595000,23.754594970703124,1.9320141077041626,3.2662200927734375,-1.9618700742721558
1712835218084595000,23.774594970703124,1.5099061727523804,3.3138675689697266,-2.460336208343506
1712835218104595000,23.794594970703123,1.6931657791137695,3.501403331756592,-2.7602710723876953
1712835218124595000,23.814594970703126,1.0224356651306152,3.1214449405670166,-1.3962088823318481
1712835218144595000,23.834594970703126,0.21365012228488922,1.3236685991287231,-0.5416083931922913
1712835218164595000,23.854594970703126,0.30833423137664795,-0.6836345791816711,-0.8665887117385864
1712835218184595000,23.874594970703125,0.47021353244781494,-0.9933432340621948,-0.673555314540863
1712835218204595000,23.894594970703125,0.1843285858631134,-0.23770293593406677,0.042989641427993774
1712835218224595000,23.914594970703124,-0.1889100819826126,0.6639341711997986,0.5335144400596619
1712835218244595000,23.934594970703124,-0.15042556822299957,0.41897720098495483,0.7051675915718079
1712835218264595200,23.95459521484375,-0.13759739696979523,-0.4942663311958313,0.9837220907211304
1712835218284595200,23.97459521484375,-0.3520110845565796,-1.4728724956512451,1.3893365859985352
1712835218304595200,23.99459521484375,-0.6440047025680542,-2.6738336086273193,1.7931185960769653
1712835218324595200,24.01459521484375,-1.2157745361328125,-3.9719221591949463,2.0606775283813477
1712835218344595200,24.03459521484375,-1.9408715963363647,-5.3683600425720215,1.5567137002944946
1712835218364595000,24.054594970703125,-2.339155673980713,-6.698824405670166,1.276937484741211
1712835218384595000,24.074594970703124,-1.7484490871429443,-6.975546360015869,1.39727783203125
1712835218404595000,24.094594970703124,-0.888350784778595,-5.252295970916748,0.3759112060070038
1712835218424595000,24.114594970703124,-0.727082371711731,-2.5870907306671143,-0.060246583074331284
1712835218444595000,24.134594970703127,-0.37400224804878235,0.32673653960227966,-0.1048397496342659
1712835218464595000,24.154594970703126,0.02122756652534008,-0.16684256494045258,-0.3980550765991211
1712835218484595000,24.174594970703126,0.4060726761817932,-1.1711050271987915,-0.6265186667442322
1712835218504595000,24.194594970703125,0.7518224120140076,-0.9487500786781311,-0.7993935346603394
1712835218524595000,24.214594970703125,0.9442449808120728,-0.037950001657009125,-0.9606619477272034
1712835218544595000,24.234594970703125,0.9210320711135864,1.2919036149978638,-1.0883327722549438
1712835218564595000,24.254594970703124,0.8941540122032166,1.646816372871399,-1.041296124458313
1712835218584595000,24.274594970703124,0.8862127661705017,1.1281917095184326,-0.7926740050315857
1712835218604595000,24.294594970703123,0.7334964275360107,0.14347697794437408,-0.46525025367736816
1712835218624595000,24.314594970703126,0.4482223689556122,-0.6280458569526672,-0.0944550409913063
1712835218644595000,24.334594970703126,0.0731511116027832,-1.0202213525772095,0.19142989814281464
1712835218664595000,24.354594970703126,-0.3318525552749634,-0.9915106296539307,0.40767619013786316
1712835218684595000,24.374594970703125,-0.6550002694129944,-0.46616652607917786,0.5041928887367249
1712835218704595000,24.394594970703125,-0.8639161586761475,0.3310126066207886,0.5121341347694397
1712835218724595000,24.414594970703124,-0.888350784778595,0.8624653816223145,0.5634468197822571
1712835218744595000,24.434594970703124,-1.020297646522522,0.9290496706962585,0.7851909399032593
1712835218764595200,24.45459521484375,-1.0734429359436035,0.3798818290233612,0.8865945339202881
1712835218784595200,24.47459521484375,-0.965319812297821,-0.13813190162181854,0.8841511011123657
1712835218804595200,24.49459521484375,-0.9329439401626587,-0.33544138073921204,0.8927031755447388
1712835218824595200,24.51459521484375,-0.7900014519691467,-0.00618501054123044,0.8560512661933899
1712835218844595200,24.53459521484375,-0.49128836393356323,0.8740718364715576,0.5774967074394226
1712835218864595000,24.554594970703125,0.144622340798378,2.418950080871582,0.14133894443511963
1712835218884595000,24.574594970703124,0.841619610786438,4.761618137359619,-0.2514474093914032
1712835218904595000,24.594594970703124,1.3083206415176392,5.49648904800415,-0.9075166583061218
1712835218924595000,24.614594970703124,1.8880317211151123,4.9381585121154785,-1.497612476348877
1712835218944595000,24.634594970703127,1.8727601766586304,4.217947959899902,-1.8891770839691162
1712835218964595000,24.654594970703126,1.6516269445419312,3.795840263366699,-2.6246588230133057
1712835218984595000,24.674594970703126,1.3565789461135864,3.7543015480041504,-2.5409703254699707
1712835219004595000,24.694594970703125,0.8587238192558289,2.527683973312378,-1.4872277975082397
1712835219024595000,24.714594970703125,0.39324450492858887,-0.0593302883207798,-1.1139891147613525
1712835219044595000,24.734594970703125,0.3168863356113434,-0.2664135992527008,-0.7242571115493774
1712835219064595000,24.754594970703124,0.14706580340862274,0.6614906787872314,-0.19891299307346344
1712835219084595000,24.774594970703124,-0.06368270516395569,1.2076042890548706,0.2598468065261841
1712835219104595000,24.794594970703123,-0.22739458084106445,0.4709007441997528,0.6019313335418701
1712835219124595000,24.814594970703126,-0.3208569586277008,-1.289612889289856,0.9140834808349609
1712835219144595000,24.834594970703126,-0.5902485251426697,-3.0843350887298584,1.1956923007965088
1712835219164595000,24.854594970703126,-1.031293272972107,-4.38120174407959,1.5988633632659912
1712835219184595000,24.874594970703125,-1.7899879217147827,-5.310328006744385,1.6868280172348022
1712835219204595000,24.894594970703125,-2.5914430618286133,-5.853387355804443,1.455920934677124
1712835219224595000,24.914594970703124,-2.888934373855591,-6.502737045288086,1.588478684425354
1712835219244595000,24.934594970703124,-1.8877263069152832,-6.125222206115723,0.9886090159416199
