time,seconds_elapsed,z,y,x
1712835287058129000,0.08912890625,0.08900928497314453,-0.34392213821411133,0.07412433624267578
1712835287078120000,0.109119873046875,0.06722640991210938,-0.31747007369995117,0.11996150016784668
1712835287098120000,0.129119873046875,0.16326093673706055,-0.3917570114135742,0.0884404182434082
1712835287118120000,0.149119873046875,-0.018282413482666016,-0.11821126937866211,-0.516096830368042
1712835287138120000,0.169119873046875,0.13111591339111328,-0.3770413398742676,-0.42744898796081543
1712835287158120000,0.189119873046875,0.12442255020141602,-0.8056159019470215,0.301480770111084
1712835287178120000,0.209119873046875,-0.008540153503417969,-0.924476146697998,0.45977020263671875
1712835287198121200,0.229121337890625,-0.07404470443725586,-0.5272336006164551,0.7206301689147949
1712835287218121200,0.249121337890625,-0.06750154495239258,-0.5448989868164062,0.50801682472229
1712835287238121200,0.269121337890625,-0.1352534294128418,-0.9112462997436523,0.14181137084960938
1712835287258121200,0.289121337890625,-0.48836231231689453,-0.915410041809082,1.412459135055542
1712835287278121200,0.309121337890625,-0.7144012451171875,-0.451901912689209,1.876089334487915
1712835287298121200,0.329121337890625,-1.208193302154541,-0.19503164291381836,1.5179522037506104
1712835287318121200,0.349121337890625,-1.16756010055542,-1.2263307571411133,0.9062864780426025
1712835287338121200,0.369121337890625,-1.0399484634399414,-1.2606582641601562,0.996654748916626
1712835287358121200,0.389121337890625,-0.3758878707885742,-1.6870760917663574,1.3583965301513672
1712835287378121200,0.409121337890625,-0.534327507019043,-1.238429069519043,0.02097034454345703
1712835287398121200,0.429121337890625,-0.5187056064605713,-1.2685298919677734,-0.6120748519897461
1712835287418121200,0.449121337890625,-0.30443501472473145,-1.4018659591674805,-0.2756338119506836
1712835287438121200,0.469121337890625,-0.1317005157470703,-1.2270784378051758,0.14799165725708008
1712835287458121200,0.489121337890625,-0.8243880271911621,-0.5691685676574707,-0.4907956123352051
1712835287478121200,0.509121337890625,-1.4628119468688965,-0.28493499755859375,-1.038012981414795
1712835287498121200,0.529121337890625,-1.1324098110198975,0.22703075408935547,-1.12315034866333
1712835287518121200,0.549121337890625,-0.8423521518707275,1.698699951171875,-1.5963919162750244
1712835287538121200,0.569121337890625,-1.0199940204620361,2.132094383239746,-2.3940789699554443
1712835287558121700,0.589121826171875,-0.7673892974853516,0.4482002258300781,-1.9970276355743408
1712835287578121700,0.609121826171875,-0.49735724925994873,0.31632041931152344,-2.206300735473633
1712835287598121700,0.629121826171875,-0.09974312782287598,-0.3102989196777344,0.5781149864196777
1712835287618121700,0.649121826171875,0.123260498046875,-0.4191474914550781,0.33220458030700684
1712835287638121700,0.669121826171875,0.16248714923858643,-0.4703359603881836,0.12371397018432617
1712835287658121700,0.689121826171875,0.39313650131225586,-1.5040092468261719,-0.9010138511657715
1712835287678121700,0.709121826171875,0.10932785272598267,-1.7653374671936035,-0.9882938861846924
1712835287698122000,0.7291220703125,0.2548830509185791,-1.823911190032959,-1.2259786128997803
1712835287720060200,0.75106005859375,-0.10945945978164673,-1.9585676193237305,-0.8767355680465698
1712835287740060200,0.77106005859375,-0.14864102005958557,-2.0107269287109375,-1.1777631044387817
1712835287760060200,0.79106005859375,-0.016058310866355896,-2.332768440246582,-1.785589337348938
1712835287780060200,0.81106005859375,-0.06216799467802048,-2.635845184326172,-1.2472498416900635
1712835287800060000,0.831059814453125,0.04442001134157181,-3.3857502937316895,-0.7374526262283325
1712835287820060000,0.851059814453125,0.09914097934961319,-3.400984287261963,-1.0172128677368164
1712835287840060000,0.871059814453125,-0.028520792722702026,-3.9898157119750977,-0.07221914082765579
1712835287860060000,0.891059814453125,0.018388696014881134,-3.988626480102539,-0.33886194229125977
1712835287880060000,0.911059814453125,-0.23935456573963165,-4.416680335998535,-0.4522858262062073
1712835287900060000,0.931059814453125,-0.21535028517246246,-4.523870944976807,-0.3986348509788513
1712835287920060000,0.951059814453125,-0.16959163546562195,-4.5081305503845215,-0.5962203741073608
1712835287940060000,0.971059814453125,-0.34017613530158997,-3.8481855392456055,-0.2817494869232178
1712835287960060000,0.991059814453125,-0.7231169939041138,-2.942227363586426,-0.2538588047027588
1712835287980060000,1.011059814453125,-0.696779191493988,-2.4727416038513184,-0.0352858304977417
1712835288000060000,1.031059814453125,-0.657263457775116,-2.468278408050537,-0.05786418914794922
1712835288020060000,1.051059814453125,-0.5022742748260498,-1.2603073120117188,0.12314856052398682
1712835288040060000,1.071059814453125,-0.7400929927825928,0.5317974090576172,-0.3107532262802124
1712835288060060200,1.09106005859375,-0.5595852732658386,1.4053716659545898,-0.4466659426689148
1712835288080060200,1.11106005859375,-0.904549241065979,2.882772445678711,0.2643894553184509
1712835288100060200,1.13106005859375,-1.2112659215927124,3.134248733520508,1.0488100051879883
1712835288120060200,1.15106005859375,-0.8277025818824768,2.491910934448242,1.7128866910934448
1712835288140060200,1.17106005859375,-0.3119495213031769,2.544790267944336,1.9915351867675781
1712835288160060000,1.191059814453125,-0.3518735468387604,2.541982650756836,2.184809923171997
1712835288180060000,1.211059814453125,-0.39555880427360535,3.3519535064697266,2.6685609817504883
1712835288200060200,1.23106005859375,-0.2647939622402191,3.940835952758789,3.179206609725952
1712835288220060200,1.25106005859375,-0.3231770396232605,3.9495649337768555,3.370882749557495
1712835288240060200,1.27106005859375,-0.21182548999786377,4.120691299438477,2.3208305835723877
1712835288260060200,1.29106005859375,-0.04945829510688782,3.847733497619629,1.492053747177124
1712835288280060200,1.31106005859375,1.6323133707046509,4.734967231750488,1.4445736408233643
1712835288300060000,1.331059814453125,1.1616063117980957,5.632802963256836,0.10994917154312134
1712835288320060000,1.351059814453125,-0.766539990901947,5.741299629211426,-0.8581517934799194
1712835288340060000,1.371059814453125,-1.5849525928497314,5.363012313842773,-3.2590739727020264
1712835288360060000,1.391059814453125,-1.6288394927978516,5.368836402893066,-3.2164199352264404
1712835288380060000,1.411059814453125,-0.37602847814559937,7.257506370544434,-0.5086766481399536
1712835288400060000,1.431059814453125,1.9724949598312378,6.844581604003906,6.426016330718994
1712835288420060000,1.451059814453125,2.1270647048950195,6.118729591369629,5.79291296005249
1712835288440060000,1.471059814453125,0.4891979694366455,5.7156782150268555,3.75775408744812
1712835288460060000,1.491059814453125,0.4915463626384735,5.700708389282227,3.537315845489502
1712835288480060000,1.511059814453125,-0.8357831239700317,6.8115081787109375,1.203370451927185
1712835288500060000,1.531059814453125,0.08523938059806824,6.142467498779297,2.998990058898926
1712835288520060000,1.551059814453125,-0.008209168910980225,4.937648773193359,4.088825225830078
1712835288540060000,1.571059814453125,0.03824585676193237,4.955404281616211,3.7271389961242676
1712835288560060200,1.59106005859375,-0.3073951005935669,4.3033905029296875,4.33308744430542
1712835288580060200,1.61106005859375,-0.47957247495651245,3.3137168884277344,1.5912981033325195
1712835288600060200,1.63106005859375,-0.9361380934715271,2.076030731201172,0.6002799272537231
1712835288620060200,1.65106005859375,-0.7520222067832947,1.5468568801879883,-0.45753681659698486
1712835288640060200,1.67106005859375,-1.2603670358657837,0.6222028732299805,-1.816784381866455
1712835288660060000,1.691059814453125,-0.52685546875,-0.45833492279052734,-2.4693315029144287
1712835288680060000,1.711059814453125,-0.018369197845458984,-1.51131010055542,-3.1513686180114746
1712835288700060200,1.73106005859375,-0.09818220138549805,-2.7768797874450684,-3.659238815307617
1712835288720060200,1.75106005859375,-0.7567540407180786,-3.1264572143554688,-3.842815637588501
1712835288740060200,1.77106005859375,-0.7723816633224487,-4.031696796417236,-3.706355571746826
1712835288760060200,1.79106005859375,-0.8702061176300049,-4.032363414764404,-3.6506032943725586
1712835288780060200,1.81106005859375,-0.9576166868209839,-4.78084135055542,-2.7410495281219482
1712835288800060000,1.831059814453125,-1.3280677795410156,-5.030868053436279,-3.5180935859680176
1712835288820060000,1.851059814453125,-1.6385360956192017,-5.398292541503906,-4.788784027099609
1712835288840060000,1.871059814453125,-2.0023117065429688,-5.409957408905029,-5.036917686462402
1712835288860060000,1.891059814453125,-2.5995874404907227,-4.918720722198486,-4.731240272521973
1712835288880060000,1.911059814453125,-3.7231202125549316,-4.561309814453125,-3.3000407218933105
1712835288900060000,1.931059814453125,-4.070133209228516,-3.6500163078308105,-2.5311577320098877
1712835288920060000,1.951059814453125,-3.5088324546813965,-2.0917186737060547,-2.526914119720459
1712835288940060000,1.971059814453125,-3.609562397003174,-0.705500602722168,-2.719632625579834
1712835288960060000,1.991059814453125,-3.241604804992676,-0.7288389205932617,-2.4747376441955566
1712835288980060000,2.011059814453125,0.3709954023361206,2.1641178131103516,-4.408092975616455
1712835289000060000,2.031059814453125,0.8055058121681213,5.164881706237793,-3.514733076095581
1712835289020060000,2.051059814453125,0.8728346824645996,5.2096757888793945,-2.866905450820923
1712835289040060000,2.071059814453125,2.5845415592193604,4.185408592224121,0.9242567420005798
1712835289060060200,2.09106005859375,2.742795467376709,1.6699705123901367,0.9928498268127441
1712835289080060200,2.11106005859375,0.14543722569942474,-0.2561368942260742,1.3682568073272705
1712835289100060200,2.13106005859375,-4.082120418548584,1.0785188674926758,6.545576095581055
1712835289120060200,2.15106005859375,-7.572464942932129,5.3475189208984375,10.997053146362305
1712835289140060200,2.17106005859375,-4.859475135803223,2.523625373840332,5.583808422088623
1712835289160060000,2.191059814453125,0.2819010317325592,2.009934425354004,4.448545455932617
1712835289180060000,2.211059814453125,0.7954141497612,1.3815603256225586,5.446337699890137
1712835289200060200,2.23106005859375,0.6180471181869507,1.3638229370117188,5.236736297607422
1712835289220060200,2.25106005859375,-0.3569713234901428,-0.11917972564697266,4.714456558227539
1712835289240060200,2.27106005859375,-0.4775267243385315,-0.13177204132080078,4.462833404541016
1712835289260060200,2.29106005859375,-0.9389246106147766,0.966975212097168,1.3316562175750732
1712835289280060200,2.31106005859375,-1.9586596488952637,-1.5219478607177734,-3.742359161376953
1712835289300060000,2.331059814453125,-2.1758222579956055,-1.495558738708496,-3.954515218734741
1712835289320060000,2.351059814453125,0.028476834297180176,-3.7101354598999023,-2.561753988265991
1712835289340060000,2.371059814453125,0.9027860164642334,-3.1116604804992676,-0.5198153257369995
1712835289360060000,2.391059814453125,1.3846824169158936,-2.3481478691101074,1.1282203197479248
1712835289380060000,2.411059814453125,1.5750453472137451,-2.076918601989746,2.0161924362182617
1712835289400060000,2.431059814453125,1.6184194087982178,-1.6063990592956543,1.8578031063079834
1712835289420060000,2.451059814453125,1.3766005039215088,-1.2548904418945312,0.9065171480178833
1712835289440060000,2.471059814453125,1.0851080417633057,-1.1123628616333008,-0.2581636905670166
1712835289460060000,2.491059814453125,0.7342567443847656,-1.1261305809020996,-1.565355896949768
1712835289480060000,2.511059814453125,0.48803067207336426,-1.0154662132263184,-1.6745249032974243
1712835289500060000,2.531059814453125,-0.11756372451782227,-1.1990032196044922,-2.605376720428467
1712835289520060000,2.551059814453125,-0.41901326179504395,-2.100706100463867,-3.1370458602905273
1712835289540060000,2.571059814453125,-0.544304370880127,-2.005002021789551,-3.2915921211242676
1712835289560060200,2.59106005859375,0.5314137935638428,-2.846693992614746,-2.2303600311279297
1712835289580060200,2.61106005859375,1.2297558784484863,-3.15541934967041,-1.1458852291107178
1712835289600060200,2.63106005859375,1.5346291065216064,-3.1663098335266113,-0.7951316833496094
1712835289620060200,2.65106005859375,1.0218548774719238,-3.5005288124084473,-1.0958664417266846
1712835289640060200,2.67106005859375,0.7556030750274658,-3.7043304443359375,-1.868618130683899
1712835289660060000,2.691059814453125,-0.1225743293762207,-3.4817004203796387,-2.5277647972106934
1712835289680060000,2.711059814453125,-0.9864542484283447,-3.186420440673828,-2.9170167446136475
1712835289700060200,2.73106005859375,-0.9268872737884521,-3.1358718872070312,-3.080514430999756
1712835289720060200,2.75106005859375,-1.330794095993042,-2.9371347427368164,-3.404583215713501
1712835289740060200,2.77106005859375,-1.464859962463379,-2.013448715209961,-2.797717571258545
1712835289760060200,2.79106005859375,-1.6698353290557861,-1.3898777961730957,-1.9180285930633545
1712835289780060200,2.81106005859375,-2.099703073501587,0.0880584716796875,-0.20541095733642578
1712835289800060000,2.831059814453125,-1.8998498916625977,0.08020401000976562,-0.31933021545410156
1712835289820060000,2.851059814453125,-2.8048017024993896,-0.4794650077819824,2.178225517272949
1712835289840060000,2.871059814453125,-1.8450725078582764,-1.1184868812561035,2.557002067565918
1712835289860060000,2.891059814453125,-1.7022433280944824,-1.1569104194641113,2.5469932556152344
1712835289880060000,2.911059814453125,-2.3042593002319336,0.5329456329345703,1.300924301147461
1712835289900060000,2.931059814453125,-2.5226292610168457,-0.19412612915039062,1.1056599617004395
1712835289920060000,2.951059814453125,-2.200068712234497,-1.5047502517700195,1.7782955169677734
1712835289940060000,2.971059814453125,-2.1743650436401367,-1.8922386169433594,2.1473922729492188
1712835289960060000,2.991059814453125,-1.9982854127883911,-1.9564704895019531,2.1933116912841797
1712835289980060000,3.011059814453125,-1.477407693862915,-2.1521801948547363,2.262613296508789
1712835290000060000,3.031059814453125,-1.9479951858520508,-0.6042656898498535,2.804732322692871
1712835290020060000,3.051059814453125,-2.823629856109619,0.14425182342529297,2.395725727081299
1712835290040060000,3.071059814453125,-2.9298112392425537,-0.180511474609375,1.8842291831970215
1712835290060060200,3.09106005859375,-3.096606731414795,0.3016929626464844,1.5421481132507324
1712835290080060200,3.11106005859375,-2.8588054180145264,0.2191152572631836,1.6759650707244873
1712835290100060200,3.13106005859375,-3.543771266937256,0.7767543792724609,0.8035001754760742
1712835290120060200,3.15106005859375,-2.795738458633423,2.240915298461914,1.9046685695648193
1712835290140060200,3.17106005859375,-2.8400020599365234,2.5712718963623047,3.088106870651245
1712835290160060000,3.191059814453125,-4.66522216796875,4.285661697387695,9.690277099609375
1712835290180060000,3.211059814453125,1.039190649986267,5.600661277770996,11.531088829040527
1712835290200060200,3.23106005859375,1.0622323751449585,5.6702117919921875,11.375197410583496
1712835290220060200,3.25106005859375,0.48882415890693665,6.618193626403809,9.459001541137695
1712835290240060200,3.27106005859375,0.005495525896549225,6.752849578857422,9.158151626586914
1712835290260060200,3.29106005859375,-2.2271928787231445,4.7032012939453125,-3.323629379272461
1712835290280060200,3.31106005859375,-2.8316802978515625,4.841179847717285,-3.460110664367676
1712835290300060000,3.331059814453125,-1.440614104270935,3.4055700302124023,-0.572847843170166
1712835290320059600,3.3510595703125,2.7945210933685303,2.9227371215820312,-8.56796646118164
1712835290340059600,3.3710595703125,3.118269443511963,1.4535045623779297,-12.470987319946289
1712835290360059600,3.3910595703125,-1.8094406127929688,1.3977689743041992,-11.447364807128906
1712835290380059600,3.4110595703125,-3.8064513206481934,0.10032939910888672,-6.099713325500488
1712835290400059600,3.4310595703125,-4.5240159034729,-0.41744518280029297,-2.671372413635254
1712835290420059600,3.4510595703125,-4.473562717437744,-0.47618865966796875,-2.592935562133789
1712835290440059600,3.4710595703125,-0.3442678451538086,-1.648209571838379,2.5565052032470703
1712835290460059600,3.4910595703125,0.9035806655883789,-3.4506263732910156,3.324786901473999
1712835290480059600,3.5110595703125,-0.6815810203552246,-2.4433560371398926,-1.4937200546264648
1712835290500059600,3.5310595703125,1.0528135299682617,-1.7655925750732422,-7.707638740539551
1712835290520059600,3.5510595703125,1.0060887336730957,-1.8502368927001953,-7.39409065246582
1712835290540059600,3.5710595703125,4.172050952911377,1.6389226913452148,-13.208818435668945
1712835290560060000,3.591059814453125,2.171574115753174,3.398343086242676,-15.852673530578613
1712835290580060000,3.611059814453125,0.9970765113830566,1.751657485961914,-13.480024337768555
1712835290600060000,3.631059814453125,1.1017661094665527,1.0337886810302734,-9.542845726013184
1712835290620060000,3.651059814453125,0.9166159629821777,0.45902347564697266,-5.6934990882873535
1712835290640060000,3.671059814453125,-1.1319935321807861,0.5321207046508789,-2.612041711807251
1712835290660059600,3.6910595703125,-1.9790904521942139,0.7967758178710938,0.6817687749862671
1712835290680059600,3.7110595703125,-4.074941158294678,-0.81524658203125,3.013766288757324
1712835290700060000,3.731059814453125,-6.218580722808838,-0.6657743453979492,4.674220561981201
1712835290720060000,3.751059814453125,-4.660426139831543,3.2662253379821777,3.4035863876342773
1712835290740060000,3.771059814453125,-2.0163373947143555,5.978328704833984,-0.12840509414672852
1712835290760060000,3.791059814453125,-0.11110877990722656,8.452134132385254,-4.646682262420654
1712835290780060000,3.811059814453125,-0.6016478538513184,7.1386003494262695,-14.828407287597656
1712835290800059600,3.8310595703125,-21.002479553222656,18.570302963256836,15.040782928466797
1712835290820059600,3.8510595703125,37.1213264465332,29.395118713378906,65.76091003417969
1712835290840059600,3.8710595703125,11.917448997497559,-23.849565505981445,10.322648048400879
1712835290860059600,3.8910595703125,-17.940929412841797,-7.737740516662598,-1.6887812614440918
1712835290880059600,3.9110595703125,-8.534239768981934,21.17011833190918,4.332300662994385
1712835290900059600,3.9310595703125,-0.713869571685791,1.6168732643127441,-5.726010322570801
1712835290920060000,3.951059814453125,2.505366325378418,-4.976907730102539,-5.377405643463135
1712835290940060000,3.971059814453125,3.1789984703063965,-6.762014389038086,-8.00460147857666
1712835290960060000,3.991059814453125,1.395939826965332,-3.706003189086914,-9.084914207458496
1712835290980060000,4.011059814453125,-5.675477504730225,-1.0066242218017578,-7.1769118309021
1712835291000060000,4.031059814453125,-6.934500694274902,-1.9605517387390137,-6.230154037475586
1712835291020060000,4.051059814453125,-3.91940975189209,-1.9087028503417969,-2.2004168033599854
1712835291040060000,4.071059814453125,-0.9666128158569336,0.8067440986633301,5.1580891609191895
1712835291060060200,4.09106005859375,3.7096304893493652,4.095394134521484,14.139293670654297
1712835291080060200,4.11106005859375,1.6174602508544922,5.75600004196167,21.66529083251953
1712835291100060200,4.13106005859375,-4.374866008758545,4.639886856079102,13.418964385986328
1712835291120060200,4.15106005859375,-7.253499984741211,5.539668083190918,3.6601223945617676
1712835291140060200,4.17106005859375,-11.002681732177734,9.346088409423828,1.4488158226013184
1712835291160060000,4.191059814453125,-4.413866996765137,3.296945095062256,4.401235580444336
1712835291180060000,4.211059814453125,2.687723159790039,-0.8887295722961426,7.565652847290039
1712835291200060200,4.23106005859375,1.6617846488952637,0.32214832305908203,3.7941806316375732
1712835291220060200,4.25106005859375,-1.6667852401733398,5.679862976074219,3.5508670806884766
1712835291240060200,4.27106005859375,0.5854907035827637,4.708871841430664,8.894122123718262
1712835291260060200,4.29106005859375,2.46726655960083,10.513528823852539,12.696067810058594
1712835291280060200,4.31106005859375,4.133067607879639,10.475996971130371,6.1117048263549805
1712835291300060000,4.331059814453125,4.2678093910217285,9.495706558227539,0.7225439548492432
1712835291320060000,4.351059814453125,0.9167542457580566,7.714147567749023,-4.012353420257568
1712835291340060000,4.371059814453125,-1.007009506225586,4.319357395172119,-10.425450325012207
1712835291360060000,4.391059814453125,-2.4137308597564697,0.7963294982910156,-9.892422676086426
1712835291380060000,4.411059814453125,-1.383491039276123,-1.269242763519287,-7.368329048156738
1712835291400060000,4.431059814453125,-0.5212898254394531,-0.4358811378479004,-4.316765785217285
1712835291420060000,4.451059814453125,-2.0144052505493164,-0.47180700302124023,-5.1811652183532715
1712835291440060000,4.471059814453125,-4.098380088806152,-0.06505489349365234,-6.673602104187012
1712835291460060000,4.491059814453125,-6.651471138000488,-0.41593122482299805,-7.195417404174805
1712835291480060000,4.511059814453125,-5.918485164642334,-2.006969451904297,-5.61518669128418
1712835291500060000,4.531059814453125,-6.964968681335449,-1.5228071212768555,-3.250000238418579
1712835291520060000,4.551059814453125,-8.307539939880371,-2.9608798027038574,-1.9087543487548828
1712835291540060000,4.571059814453125,-7.310839653015137,-2.9183003902435303,-1.3624584674835205
1712835291560060200,4.59106005859375,-4.97334623336792,-2.726043701171875,-1.968700885772705
1712835291580060200,4.61106005859375,-2.582288980484009,-2.437976598739624,-2.9750306606292725
1712835291600060200,4.63106005859375,-2.427286386489868,-1.7627272605895996,-5.163823127746582
1712835291620060200,4.65106005859375,-2.8624398708343506,-0.8201208114624023,-8.284976959228516
1712835291640060200,4.67106005859375,-3.4480950832366943,-0.3440513610839844,-10.49428939819336
1712835291660060000,4.691059814453125,-4.431477069854736,1.1281051635742188,-11.1266508102417
1712835291680060000,4.711059814453125,-4.869062423706055,5.2052001953125,-8.914959907531738
1712835291700060200,4.73106005859375,-2.4316599369049072,6.697762966156006,-4.225600242614746
1712835291720060200,4.75106005859375,-1.6092255115509033,6.131845951080322,5.857313632965088
1712835291740060200,4.77106005859375,-1.6968828439712524,2.7415599822998047,15.99859619140625
1712835291760060200,4.79106005859375,0.7229729294776917,1.6899266242980957,14.836997985839844
1712835291780060200,4.81106005859375,1.308915138244629,3.309016704559326,11.523046493530273
1712835291800060000,4.831059814453125,1.1712275743484497,2.4676384925842285,7.356107234954834
1712835291820060000,4.851059814453125,-0.5995242595672607,1.8393993377685547,4.151546478271484
1712835291840060000,4.871059814453125,-1.428484320640564,1.4596915245056152,4.648845672607422
1712835291860060000,4.891059814453125,0.4763985276222229,0.2136392593383789,5.772407054901123
1712835291880060000,4.911059814453125,1.7804811000823975,-0.18937969207763672,4.455869674682617
1712835291900060000,4.931059814453125,1.4028440713882446,0.26732349395751953,2.3748326301574707
1712835291920060000,4.951059814453125,-0.6076978445053101,-0.20251131057739258,0.5136675834655762
1712835291940060000,4.971059814453125,-2.41290545463562,-1.130932331085205,-1.435563564300537
1712835291960060000,4.991059814453125,-2.191209077835083,-1.1884942054748535,-2.9977104663848877
1712835291980060000,5.011059814453125,-1.5383654832839966,-1.0850491523742676,-3.8436408042907715
1712835292000060000,5.031059814453125,-1.1796680688858032,-1.766143798828125,-3.497015953063965
1712835292020060000,5.051059814453125,-0.7753656506538391,-1.9394311904907227,-1.8806266784667969
1712835292040060000,5.071059814453125,-1.4414830207824707,-0.6682815551757812,-0.4843158721923828
1712835292060060200,5.09106005859375,-1.2321908473968506,-0.6889891624450684,0.7450160980224609
1712835292080060200,5.11106005859375,-0.21974517405033112,-0.899507999420166,2.7924890518188477
1712835292100060200,5.13106005859375,0.6375415325164795,0.30527400970458984,4.3850579261779785
1712835292120060200,5.15106005859375,1.2336971759796143,0.8364686965942383,2.6166114807128906
1712835292140060200,5.17106005859375,1.602231502532959,1.381195068359375,0.6087636947631836
1712835292160060000,5.191059814453125,0.13213759660720825,2.458937644958496,0.2567934989929199
1712835292180060000,5.211059814453125,-0.42556557059288025,2.0639705657958984,1.2434139251708984
1712835292200060200,5.23106005859375,0.06291794776916504,0.667330265045166,1.903876781463623
1712835292220060200,5.25106005859375,0.3734261989593506,-0.6130571365356445,1.2816777229309082
1712835292240060200,5.27106005859375,0.7097667455673218,-0.9530057907104492,-0.0931849479675293
1712835292260060200,5.29106005859375,0.3605620861053467,-0.28975725173950195,-1.0866913795471191
1712835292280060200,5.31106005859375,0.16588759422302246,-0.26433706283569336,-1.384326457977295
1712835292300060000,5.331059814453125,-0.5013169050216675,-0.32735300064086914,-1.4381756782531738
1712835292320060000,5.351059814453125,-1.1643316745758057,-0.7496981620788574,-1.9345836639404297
1712835292340060000,5.371059814453125,-1.1106860637664795,-1.5561227798461914,-2.301285743713379
1712835292360060000,5.391059814453125,-0.5894622802734375,-2.0752129554748535,-2.1584410667419434
1712835292380060000,5.411059814453125,0.1230543851852417,-2.053659439086914,-1.9310312271118164
1712835292400060000,5.431059814453125,0.5330610275268555,-1.83599853515625,-1.7569732666015625
1712835292420060200,5.45106005859375,1.048240303993225,-1.2351436614990234,-1.614820957183838
1712835292440060200,5.47106005859375,1.4189515113830566,-0.5103082656860352,-0.5829110145568848
1712835292460060200,5.49106005859375,0.20482265949249268,1.1940383911132812,1.1758670806884766
1712835292480060200,5.51106005859375,-2.398360013961792,1.0323905944824219,2.8992128372192383
1712835292500060200,5.53106005859375,-1.1758615970611572,-1.7575178146362305,3.8999295234680176
1712835292520060200,5.55106005859375,1.222212553024292,-3.355889320373535,2.960529327392578
1712835292540060200,5.57106005859375,1.239537000656128,-3.299100399017334,2.8907532691955566
1712835292560060400,5.591060302734375,-0.5935057401657104,-1.1075119972229004,0.10170555114746094
1712835292580060400,5.611060302734375,-1.3588371276855469,-1.3810787200927734,0.9505090713500977
1712835292600060400,5.631060302734375,-1.126095175743103,-1.8935294151306152,1.7065205574035645
1712835292620060400,5.651060302734375,-0.4153454303741455,-2.2724061012268066,0.7608113288879395
1712835292640060400,5.671060302734375,0.02328360080718994,-2.4551491737365723,-0.4276118278503418
1712835292660060200,5.69106005859375,-0.4687430262565613,-2.4091925621032715,-0.890709400177002
1712835292680060200,5.71106005859375,-1.48016357421875,-2.4714889526367188,-1.3632054328918457
1712835292700060400,5.731060302734375,-1.8874444961547852,-2.480438232421875,-1.6890335083007812
1712835292720060400,5.751060302734375,-1.4801836013793945,-2.6530675888061523,-1.8283867835998535
1712835292740060400,5.771060302734375,-1.298202633857727,-2.1969118118286133,-1.186023235321045
1712835292760060400,5.791060302734375,-1.7527788877487183,-1.7139949798583984,-0.9625716209411621
1712835292780060400,5.811060302734375,-1.6166768074035645,-2.1563467979431152,-0.891843318939209
1712835292800060200,5.83106005859375,-1.199125051498413,-2.2754454612731934,0.03344583511352539
1712835292820060200,5.85106005859375,-1.0817515850067139,-0.538456916809082,0.3354759216308594
1712835292840060200,5.87106005859375,-2.591931104660034,1.9120893478393555,-0.27991485595703125
1712835292860060200,5.89106005859375,-3.933746099472046,4.896902084350586,3.705129623413086
1712835292880060200,5.91106005859375,-5.157870769500732,5.371831893920898,9.294779777526855
1712835292900060200,5.93106005859375,0.816045343875885,3.6737842559814453,15.433830261230469
1712835292920060200,5.95106005859375,5.466460227966309,3.8448104858398438,13.334171295166016
1712835292940060200,5.97106005859375,1.1352927684783936,6.211507797241211,10.615898132324219
1712835292960060200,5.99106005859375,-0.9130514860153198,6.143078804016113,5.915257453918457
1712835292980060200,6.01106005859375,-1.4764858484268188,5.772061824798584,0.7180371284484863
1712835293000060200,6.03106005859375,-2.0497705936431885,4.210434436798096,-0.8087501525878906
1712835293020060000,6.051059814453125,-6.0615434646606445,1.5944867134094238,-2.253695011138916
1712835293040060000,6.071059814453125,0.3511316776275635,4.131011486053467,-2.2879185676574707
1712835293060060200,6.09106005859375,8.639795303344727,1.8557496070861816,-3.2292473316192627
1712835293080060200,6.11106005859375,-3.1976590156555176,5.410361289978027,-12.333475112915039
1712835293100060200,6.13106005859375,-8.037458419799805,-0.6583938598632812,-12.595338821411133
1712835293120060200,6.15106005859375,-3.2502224445343018,-1.1890840530395508,-1.6584405899047852
1712835293140060200,6.17106005859375,-1.89534592628479,-1.3824377059936523,1.8142237663269043
1712835293160060000,6.191059814453125,-4.435852527618408,-0.29743051528930664,-2.459275007247925
1712835293180060000,6.211059814453125,-4.706968307495117,-1.4623870849609375,-3.6727702617645264
1712835293200060200,6.23106005859375,-2.937325954437256,-1.6889567375183105,-5.088767051696777
1712835293220060200,6.25106005859375,-2.6418774127960205,-1.517441749572754,-5.809844017028809
1712835293240060200,6.27106005859375,-2.2822508811950684,-1.8228187561035156,-4.813004493713379
1712835293260060200,6.29106005859375,-1.2765209674835205,-1.7168712615966797,-3.5030853748321533
1712835293280060200,6.31106005859375,-0.8878483772277832,-1.4842886924743652,-3.5926053524017334
1712835293300060000,6.331059814453125,-0.954343318939209,-1.0172300338745117,-5.447573184967041
1712835293320060000,6.351059814453125,-1.644942045211792,0.5308370590209961,-7.165842056274414
1712835293340060000,6.371059814453125,-2.4614009857177734,0.5360045433044434,-7.205516338348389
1712835293360060000,6.391059814453125,-2.82336688041687,5.999287128448486,-4.553110122680664
1712835293380060000,6.411059814453125,0.17274510860443115,7.781389236450195,-2.0878615379333496
1712835293400060000,6.431059814453125,-2.6446616649627686,4.7707600593566895,3.387094020843506
1712835293420060000,6.451059814453125,0.33904534578323364,1.576507568359375,13.24515151977539
1712835293440060000,6.471059814453125,4.432261943817139,-0.5698390007019043,16.225791931152344
1712835293460060000,6.491059814453125,0.9713056087493896,0.8658742904663086,13.188314437866211
1712835293480060000,6.511059814453125,-4.436362266540527,0.8105182647705078,8.504776954650879
1712835293500060000,6.531059814453125,-2.985337734222412,-0.3091583251953125,3.285897731781006
1712835293520060000,6.551059814453125,0.495269775390625,-0.280853271484375,0.9817266464233398
1712835293540060000,6.571059814453125,2.3212778568267822,-0.26759862899780273,-0.3322911262512207
1712835293560060200,6.59106005859375,2.001397132873535,-0.7537846565246582,-1.165834903717041
1712835293580060200,6.61106005859375,0.5991144776344299,-1.2323665618896484,-1.8766975402832031
1712835293600060200,6.63106005859375,-0.4556427001953125,-1.4428653717041016,-2.6522364616394043
1712835293620060200,6.65106005859375,-1.5812240839004517,-1.9404449462890625,-3.645728588104248
1712835293640060200,6.67106005859375,-1.9794058799743652,-2.512096405029297,-4.003528594970703
1712835293660060000,6.691059814453125,-1.2202908992767334,-2.5686211585998535,-2.610960006713867
1712835293680060000,6.711059814453125,0.03105771541595459,-1.8004131317138672,-0.4023003578186035
1712835293700060200,6.73106005859375,0.523231029510498,-0.7289371490478516,0.9244866371154785
1712835293720060200,6.75106005859375,0.32271337509155273,-0.43880367279052734,1.2792086601257324
1712835293740060200,6.77106005859375,0.7222583293914795,-1.1955971717834473,1.5620970726013184
1712835293760060200,6.79106005859375,0.6441618204116821,-2.0087528228759766,1.7753386497497559
1712835293780060200,6.81106005859375,0.7361042499542236,-2.890524387359619,0.7796034812927246
1712835293800060000,6.831059814453125,-0.3996221423149109,-2.7912001609802246,-0.5934209823608398
1712835293820060000,6.851059814453125,-1.4648290872573853,-2.760681629180908,-1.1543102264404297
1712835293840060000,6.871059814453125,-0.9570189714431763,-2.6894431114196777,-0.04650402069091797
1712835293860060000,6.891059814453125,-0.30921661853790283,-2.2103590965270996,0.42514848709106445
1712835293880060000,6.911059814453125,-1.4200273752212524,0.22351360321044922,0.24477672576904297
1712835293900060000,6.931059814453125,-2.811748504638672,1.370142936706543,2.173004627227783
1712835293920060000,6.951059814453125,-5.046266555786133,1.5181894302368164,5.686953067779541
1712835293940060000,6.971059814453125,-2.792294502258301,1.6360578536987305,9.816624641418457
1712835293960060000,6.991059814453125,5.209505558013916,0.9286098480224609,8.485748291015625
1712835293980060000,7.011059814453125,7.733063220977783,2.7042036056518555,9.674015045166016
1712835294000060000,7.031059814453125,2.8370349407196045,5.84825325012207,10.106011390686035
1712835294020060000,7.051059814453125,1.5680410861968994,4.5947723388671875,0.24780511856079102
1712835294040060000,7.071059814453125,-1.1152938604354858,5.296818733215332,-4.032068252563477
1712835294060060200,7.09106005859375,6.352922439575195,5.885171890258789,-1.3830087184906006
1712835294080060200,7.11106005859375,2.6192121505737305,1.9814057350158691,3.842313766479492
1712835294100060200,7.13106005859375,-6.955687046051025,4.982089519500732,-2.538510322570801
1712835294120060200,7.15106005859375,-6.958308696746826,3.029050350189209,-6.692424774169922
1712835294140060200,7.17106005859375,-1.5887115001678467,0.6775884628295898,-1.5721664428710938
1712835294160060000,7.191059814453125,-1.8883616924285889,-2.473931312561035,0.8363890647888184
1712835294180060000,7.211059814453125,-4.152131080627441,-1.5187034606933594,-3.0195677280426025
1712835294200060200,7.23106005859375,-4.904522895812988,-0.9339900016784668,-5.348319053649902
1712835294220060200,7.25106005859375,-3.8571784496307373,-1.774949073791504,-4.153489112854004
1712835294240060200,7.27106005859375,-2.5653302669525146,-1.64947509765625,-3.846290111541748
1712835294260060200,7.29106005859375,-2.4008371829986572,-1.3726468086242676,-4.907517910003662
1712835294280060200,7.31106005859375,-3.25827956199646,-1.5160698890686035,-6.18477725982666
1712835294300060000,7.331059814453125,-3.765713691711426,-1.6060562133789062,-7.571737289428711
1712835294320060000,7.351059814453125,-2.912567615509033,-1.7504053115844727,-9.539231300354004
1712835294340060000,7.371059814453125,-2.4130868911743164,1.9095544815063477,-8.717683792114258
1712835294360060000,7.391059814453125,-0.6688187122344971,6.856485366821289,-8.1505126953125
1712835294380060000,7.411059814453125,0.9849512577056885,5.3140130043029785,-6.52103853225708
1712835294400060000,7.431059814453125,-5.283201694488525,3.5833139419555664,0.7224488258361816
1712835294420060000,7.451059814453125,-4.006092548370361,4.074170112609863,14.701056480407715
1712835294440060000,7.471059814453125,2.1580891609191895,1.7654075622558594,16.97624969482422
1712835294460060000,7.491059814453125,0.755577564239502,0.6395635604858398,11.54979419708252
1712835294480060000,7.511059814453125,-4.314335346221924,0.061676025390625,7.254889965057373
1712835294500060000,7.531059814453125,-3.4668681621551514,-1.0991778373718262,3.503343105316162
1712835294520060000,7.551059814453125,2.6711771488189697,-0.5390892028808594,1.3171758651733398
1712835294540060000,7.571059814453125,4.129941463470459,0.05390357971191406,1.480400562286377
1712835294560060200,7.59106005859375,2.4188923835754395,0.4600038528442383,1.248671531677246
1712835294580060200,7.61106005859375,0.8784629106521606,0.23099708557128906,0.63665771484375
1712835294600060200,7.63106005859375,-0.1330452263355255,-0.5302462577819824,-0.7008414268493652
1712835294620060200,7.65106005859375,-0.8946899175643921,-1.569535732269287,-1.5730831623077393
1712835294640060200,7.67106005859375,-2.0100016593933105,-2.230149269104004,-2.362854480743408
1712835294660060000,7.691059814453125,-2.1058449745178223,-2.5849051475524902,-2.710408926010132
1712835294680060000,7.711059814453125,-1.2147150039672852,-2.598921298980713,-1.7980191707611084
1712835294700060200,7.73106005859375,-1.123007893562317,-2.5895791053771973,-1.820899248123169
1712835294720060200,7.75106005859375,0.5508097410202026,-1.9464330673217773,1.9625225067138672
1712835294740060200,7.77106005859375,-0.054613932967185974,-1.586613655090332,2.0647997856140137
1712835294760060200,7.79106005859375,-0.7012189626693726,-1.5904192924499512,1.9088921546936035
1712835294780060200,7.81106005859375,-1.0772829055786133,-2.2461652755737305,1.9688549041748047
1712835294800060000,7.831059814453125,-0.9543240666389465,-3.04532527923584,1.7103581428527832
1712835294820060000,7.851059814453125,-0.8061275482177734,-3.3818182945251465,0.9710278511047363
1712835294840060000,7.871059814453125,-1.5617722272872925,-3.3124070167541504,-0.0032587051391601562
1712835294860060000,7.891059814453125,-1.2715953588485718,-3.80338716506958,0.004770755767822266
1712835294880060000,7.911059814453125,-0.9186847805976868,-2.4343514442443848,0.2783684730529785
1712835294900060000,7.931059814453125,-1.9822574853897095,-0.007655143737792969,-0.32790327072143555
1712835294920060000,7.951059814453125,-2.725804328918457,1.8603267669677734,2.7601122856140137
1712835294940060000,7.971059814453125,-1.5602797269821167,4.6743364334106445,10.360427856445312
1712835294960060000,7.991059814453125,-1.553971290588379,4.698814392089844,10.3114013671875
1712835294980060000,8.011059814453125,4.295417785644531,3.2691001892089844,12.51327133178711
1712835295000060000,8.031059814453124,1.6895201206207275,5.514309883117676,7.687634468078613
1712835295020060000,8.051059814453126,-2.084484100341797,5.402981758117676,0.713557243347168
1712835295040060000,8.071059814453125,-1.1647772789001465,2.887009620666504,-6.017666816711426
1712835295060060200,8.09106005859375,-0.9451345205307007,2.9031295776367188,-4.619840621948242
1712835295080060200,8.11106005859375,-0.7708988189697266,2.6350784301757812,-5.09135103225708
1712835295100060200,8.13106005859375,4.818782806396484,2.9918742179870605,-2.664407968521118
1712835295120060200,8.15106005859375,3.3859260082244873,-0.39798593521118164,-1.8345303535461426
1712835295140060200,8.17106005859375,-3.2210731506347656,1.0438075065612793,-6.844479560852051
1712835295160060000,8.191059814453125,-5.191608428955078,2.0641627311706543,-9.678691864013672
1712835295180060000,8.211059814453124,-3.779481887817383,-1.1430482864379883,-5.722295761108398
1712835295200060200,8.23106005859375,-4.481538772583008,-1.5652551651000977,-1.7515628337860107
1712835295220060200,8.25106005859375,-5.1266374588012695,-2.0464391708374023,-1.6397788524627686
1712835295240060200,8.27106005859375,-5.483006954193115,-2.2100090980529785,-1.6483078002929688
1712835295260060200,8.29106005859375,-5.427213191986084,-2.3943076133728027,-2.194371223449707
1712835295280060200,8.31106005859375,-3.867163896560669,-1.9611930847167969,-3.324580192565918
1712835295300060000,8.331059814453125,-1.5275180339813232,-0.8612465858459473,-4.369545936584473
1712835295320060000,8.351059814453125,-0.5082180500030518,-0.1005406379699707,-6.226231575012207
1712835295340060000,8.371059814453124,-0.9461143016815186,3.156132221221924,-7.8763108253479
1712835295360060000,8.391059814453126,-0.3186030387878418,7.301923751831055,-8.776955604553223
1712835295380060000,8.411059814453125,1.6328858137130737,3.3870649337768555,-2.895555019378662
1712835295400060000,8.431059814453125,-1.9149141311645508,2.4555273056030273,6.3574323654174805
1712835295420060000,8.451059814453124,-1.4858330488204956,1.4154863357543945,12.421160697937012
1712835295440060000,8.471059814453126,-2.4233479499816895,0.3906431198120117,14.08736801147461
1712835295460060000,8.491059814453125,-2.229881525039673,0.3445854187011719,14.192152976989746
1712835295480060000,8.511059814453125,-1.6195645332336426,-0.8880562782287598,5.822234153747559
1712835295500060000,8.531059814453124,-0.6837483048439026,-0.7163162231445312,2.9466304779052734
1712835295520060000,8.551059814453126,1.858830213546753,-0.9863801002502441,2.988396644592285
1712835295540060000,8.571059814453125,1.7957210540771484,-0.9214673042297363,2.86818790435791
1712835295560060200,8.59106005859375,1.2913463115692139,0.3785676956176758,1.7731437683105469
1712835295580060200,8.61106005859375,0.8543490767478943,-0.49843883514404297,0.480501651763916
1712835295600060200,8.63106005859375,-0.049080848693847656,-1.3168492317199707,-0.44886302947998047
1712835295620060200,8.65106005859375,-1.8331242799758911,-1.284532070159912,-2.046945571899414
1712835295640060200,8.67106005859375,-2.6772379875183105,-2.0810203552246094,-3.6061930656433105
1712835295660060000,8.691059814453125,-2.3417205810546875,-3.007279396057129,-3.0987353324890137
1712835295680060000,8.711059814453124,-1.146815299987793,-2.745278835296631,-0.4271507263183594
1712835295700060200,8.73106005859375,0.17665916681289673,-2.314042568206787,1.8893499374389648
1712835295720060200,8.75106005859375,0.2528234124183655,-2.129143714904785,2.257443904876709
1712835295740060200,8.77106005859375,-0.4248582720756531,-1.7167339324951172,1.15118408203125
1712835295760060200,8.79106005859375,-1.0411014556884766,-1.6541085243225098,-0.2629985809326172
1712835295780060200,8.81106005859375,-1.0740065574645996,-1.9601855278015137,-0.790867805480957
1712835295800060000,8.831059814453125,-1.4986648559570312,-1.830472469329834,-1.0096793174743652
1712835295820060000,8.851059814453125,-0.14307254552841187,-1.7231035232543945,-1.2762508392333984
1712835295840060000,8.871059814453124,0.12311069667339325,-0.7047252655029297,-0.6766049861907959
1712835295860060000,8.891059814453126,-0.9036160707473755,1.3006858825683594,-0.7981472015380859
1712835295880060000,8.911059814453125,-3.401743173599243,3.7052793502807617,4.160518646240234
1712835295900060000,8.931059814453125,-1.40165376663208,3.746500015258789,11.266986846923828
1712835295920060000,8.951059814453124,3.3771474361419678,2.369874954223633,13.374759674072266
1712835295940060000,8.971059814453126,3.570080041885376,3.328366279602051,13.097395896911621
1712835295960060000,8.991059814453125,2.3258612155914307,3.9314451217651367,6.962228775024414
1712835295980060000,9.011059814453125,0.6384592056274414,4.030478477478027,1.527811050415039
1712835296000060000,9.031059814453124,-1.0654184818267822,3.48068904876709,-2.3955745697021484
1712835296020060000,9.051059814453126,-2.1685009002685547,3.2917709350585938,-4.293711185455322
1712835296040060000,9.071059814453125,5.116268157958984,4.223297119140625,-3.0670676231384277
1712835296060060200,9.09106005859375,1.148824691772461,0.37023305892944336,-3.0983448028564453
1712835296080060200,9.11106005859375,-6.306467533111572,1.0611577033996582,-6.300671100616455
1712835296100060200,9.13106005859375,-6.354902744293213,0.6649880409240723,-8.029938697814941
1712835296120060200,9.15106005859375,-2.7101266384124756,-1.5053563117980957,-2.5275607109069824
1712835296140060200,9.17106005859375,-2.6178808212280273,-2.281675338745117,-0.31634044647216797
1712835296160060000,9.191059814453125,-3.995142936706543,-2.9123623371124268,-3.4017562866210938
1712835296180060000,9.211059814453124,-5.390294551849365,-2.067298412322998,-5.206871032714844
1712835296200060200,9.23106005859375,-5.2084221839904785,-1.676778793334961,-4.777527332305908
1712835296220060200,9.25106005859375,-3.946812152862549,-1.653116226196289,-4.3481926918029785
1712835296240060200,9.27106005859375,-3.775015354156494,-1.7438526153564453,-4.408045768737793
1712835296260060200,9.29106005859375,-2.350189685821533,-0.22252988815307617,-5.33591890335083
1712835296280060200,9.31106005859375,-1.5040411949157715,0.17261028289794922,-5.443706512451172
1712835296300060000,9.331059814453125,-2.2272696495056152,2.5443429946899414,-5.203574180603027
1712835296320060000,9.351059814453125,-2.080089569091797,7.600389003753662,-5.743818759918213
1712835296340060000,9.371059814453124,1.6067805290222168,4.139710426330566,-1.5578222274780273
1712835296360060000,9.391059814453126,-0.32249951362609863,1.3099918365478516,7.2382283210754395
1712835296380060000,9.411059814453125,0.9094756245613098,0.08779716491699219,12.931255340576172
1712835296400060000,9.431059814453125,1.2414897680282593,1.0590143203735352,11.204118728637695
1712835296420060000,9.451059814453124,-2.810673713684082,2.204890251159668,5.934417247772217
1712835296440060000,9.471059814453126,-2.8836379051208496,0.040564537048339844,2.9909634590148926
1712835296460060000,9.491059814453125,0.2613328695297241,-1.013697624206543,4.947286605834961
1712835296480060000,9.511059814453125,2.5086491107940674,-1.152482032775879,5.06888484954834
1712835296500060000,9.531059814453124,1.0861704349517822,-0.17560195922851562,3.4008007049560547
1712835296520060000,9.551059814453126,-0.03797391057014465,0.644108772277832,1.4940638542175293
1712835296540060000,9.571059814453125,-1.4586350917816162,0.09814643859863281,0.24643850326538086
1712835296560060200,9.59106005859375,-1.590634822845459,-0.6677684783935547,-0.9565768241882324
1712835296580060200,9.61106005859375,-1.0565509796142578,-1.4389567375183105,-1.6642770767211914
1712835296600060200,9.63106005859375,-0.6013389229774475,-2.174102783203125,-2.1282975673675537
1712835296620060200,9.65106005859375,-1.0087685585021973,-1.9432144165039062,-1.7274460792541504
1712835296640060200,9.67106005859375,-1.6241796016693115,-0.9821791648864746,-1.3119478225708008
1712835296660060000,9.691059814453125,-1.4855178594589233,-0.6797089576721191,0.055016517639160156
1712835296680060000,9.711059814453124,-1.4373619556427002,-1.4000372886657715,1.282158374786377
1712835296700060200,9.73106005859375,-1.1246203184127808,-2.4804635047912598,1.536057472229004
1712835296720060200,9.75106005859375,-1.0188748836517334,-3.3012990951538086,1.2553348541259766
1712835296740060200,9.77106005859375,-0.6673590540885925,-3.9614224433898926,0.6420717239379883
1712835296760060200,9.79106005859375,-0.5301132798194885,-3.943693161010742,0.08255529403686523
1712835296780060200,9.81106005859375,-0.8577131032943726,-3.492351531982422,-0.7353987693786621
1712835296800060000,9.831059814453125,-0.5341983437538147,-1.8382196426391602,-1.057309865951538
1712835296820060000,9.851059814453125,-1.3862512111663818,0.05527782440185547,-1.8688271045684814
1712835296840060000,9.871059814453124,-1.2465797662734985,-0.0269317626953125,-1.7195112705230713
1712835296860060000,9.891059814453126,-3.1412479877471924,1.9291915893554688,4.931026935577393
1712835296880060000,9.911059814453125,-0.729962944984436,2.121234893798828,8.449651718139648
1712835296900060000,9.931059814453125,2.415074110031128,2.500690460205078,11.699596405029297
1712835296920060000,9.951059814453124,3.46274471282959,3.367234230041504,10.732307434082031
1712835296940060000,9.971059814453126,1.5228896141052246,3.8997459411621094,7.007387161254883
1712835296960060000,9.991059814453125,0.9041597843170166,3.784226417541504,1.6875667572021484
1712835296980060000,10.011059814453125,-1.0646735429763794,2.842313766479492,-3.1543831825256348
1712835297000060000,10.031059814453124,-1.2628939151763916,2.1272802352905273,-5.7756123542785645
1712835297020060000,10.051059814453126,7.429834365844727,4.5751566886901855,-2.670130491256714
1712835297040060000,10.071059814453125,5.142934799194336,1.6494603157043457,0.33979129791259766
1712835297060060200,10.09106005859375,-1.4591646194458008,3.105053424835205,-3.4813008308410645
1712835297080060200,10.11106005859375,-6.559370040893555,3.343662738800049,-8.94639778137207
1712835297100060200,10.13106005859375,-5.768459320068359,0.24710607528686523,-5.569089889526367
1712835297120060200,10.15106005859375,-3.5938987731933594,-0.9227542877197266,-0.24555444717407227
1712835297140060200,10.17106005859375,-2.9948267936706543,-1.3063664436340332,1.8968620300292969
1712835297160060000,10.191059814453125,-3.417198657989502,-1.2126235961914062,0.501802921295166
1712835297180060000,10.211059814453124,-5.0670623779296875,-1.4887924194335938,-1.8297457695007324
1712835297200060200,10.23106005859375,-5.07660436630249,-1.4042649269104004,-2.971696615219116
1712835297220060200,10.25106005859375,-3.603652000427246,-1.1873431205749512,-3.195112705230713
1712835297240060200,10.27106005859375,-1.9379298686981201,-1.2500371932983398,-3.8191466331481934
1712835297260060200,10.29106005859375,-0.9117074012756348,-0.391510009765625,-5.022068977355957
1712835297280060200,10.31106005859375,0.5697135925292969,0.5641646385192871,-6.855900764465332
1712835297300060000,10.331059814453125,0.5863361358642578,1.699507236480713,-7.625387668609619
1712835297320060000,10.351059814453125,-2.7106311321258545,4.837319374084473,-8.940707206726074
1712835297340060000,10.371059814453124,-2.5660202503204346,4.085248947143555,-6.536720275878906
1712835297360060000,10.391059814453126,-5.797662734985352,2.1129150390625,3.755039691925049
1712835297380060000,10.411059814453125,-1.5701611042022705,0.8739795684814453,15.886425971984863
1712835297400060000,10.431059814453125,3.838691234588623,-2.7629356384277344,14.94684886932373
1712835297420060000,10.451059814453124,1.0705795288085938,-0.24217510223388672,7.569398880004883
1712835297440060000,10.471059814453126,-4.525302410125732,2.835232734680176,3.2831811904907227
1712835297460060000,10.491059814453125,-2.418341636657715,0.4585409164428711,1.53460693359375
1712835297480060000,10.511059814453125,1.6554620265960693,0.4277334213256836,1.9740619659423828
1712835297500060000,10.531059814453124,3.0104732513427734,-0.10623455047607422,1.316431999206543
1712835297520060000,10.551059814453126,1.4158153533935547,-0.36188316345214844,1.1564960479736328
1712835297540060000,10.571059814453125,0.14811795949935913,-0.0863199234008789,1.6248078346252441
1712835297560060200,10.59106005859375,-0.47851356863975525,-0.20407724380493164,1.1696009635925293
1712835297580060200,10.61106005859375,-0.951957643032074,-0.8981056213378906,-0.11979389190673828
1712835297600060200,10.63106005859375,-1.9879896640777588,-1.5446548461914062,-1.1268243789672852
1712835297620060200,10.65106005859375,-2.4773058891296387,-2.203256607055664,-1.7257843017578125
1712835297640060200,10.67106005859375,-1.8883403539657593,-2.304356575012207,-1.7988977432250977
1712835297660060000,10.691059814453125,-1.3550232648849487,-1.9891304969787598,-1.2370314598083496
1712835297680060000,10.711059814453124,-1.0415329933166504,-1.7214813232421875,-0.28994178771972656
1712835297700060200,10.73106005859375,-1.1107070446014404,-1.426595687866211,0.42806196212768555
1712835297720060200,10.75106005859375,-1.0456161499023438,-1.4544410705566406,0.8124852180480957
1712835297740060200,10.77106005859375,-0.8554902076721191,-1.7056889533996582,0.7992386817932129
1712835297760060200,10.79106005859375,-0.7158842086791992,-1.9982123374938965,0.2370314598083496
1712835297780060200,10.81106005859375,-0.8248143792152405,-2.46113920211792,-0.6161832809448242
1712835297800060000,10.831059814453125,-1.1981744766235352,-2.382450580596924,-1.3871657848358154
1712835297820060000,10.851059814453125,-1.3126378059387207,-1.5390353202819824,-2.258085012435913
1712835297840060000,10.871059814453124,-1.354022741317749,0.14910125732421875,-2.420886754989624
1712835297860060000,10.891059814453126,-2.290574312210083,2.5804290771484375,-2.0309109687805176
1712835297880060000,10.911059814453125,-4.073917388916016,5.072012901306152,3.274603843688965
1712835297900060000,10.931059814453125,0.21426543593406677,4.7977094650268555,14.3869047164917
1712835297920060000,10.951059814453124,6.0944929122924805,0.2107086181640625,18.332551956176758
1712835297940060000,10.971059814453126,2.5959997177124023,3.6703920364379883,16.75925064086914
1712835297960060000,10.991059814453125,-1.6580824851989746,6.801570892333984,8.435346603393555
1712835297980060000,11.011059814453125,-5.0089874267578125,4.84615421295166,-0.8122034072875977
1712835298000060000,11.031059814453124,-3.458799362182617,3.6265525817871094,-4.438438892364502
1712835298020060000,11.051059814453126,6.414999008178711,5.292272090911865,-2.1922075748443604
1712835298040060000,11.071059814453125,4.602510452270508,1.9789648056030273,-1.896972417831421
1712835298060060200,11.09106005859375,-5.561902046203613,2.745232105255127,-8.480875015258789
1712835298080060200,11.11106005859375,-9.304594039916992,1.3968291282653809,-12.604419708251953
1712835298100060200,11.13106005859375,-4.366483211517334,-0.9763555526733398,-5.993529796600342
1712835298120060200,11.15106005859375,-3.6429977416992188,-2.4801249504089355,-0.6322169303894043
1712835298140060200,11.17106005859375,-3.7513136863708496,-2.39676570892334,-0.6327652931213379
1712835298160060000,11.191059814453125,-4.408502578735352,-2.89621901512146,-4.921840190887451
1712835298180060000,11.211059814453124,-4.204663276672363,-1.578077793121338,-5.618778228759766
1712835298200060200,11.23106005859375,-3.771300792694092,-0.7009420394897461,-5.387592792510986
1712835298220060200,11.25106005859375,-3.6696267127990723,-0.7794013023376465,-5.39093542098999
1712835298240060200,11.27106005859375,-4.125852584838867,-0.9451026916503906,-3.230659008026123
1712835298260060200,11.29106005859375,-3.2074599266052246,-1.4175872802734375,-2.4613218307495117
1712835298280060200,11.31106005859375,-1.7384321689605713,-0.3524308204650879,-3.360734462738037
1712835298300060000,11.331059814453125,-0.7650818824768066,1.1213388442993164,-4.671291828155518
1712835298320060000,11.351059814453125,-0.1975243091583252,0.8346676826477051,-4.6438117027282715
1712835298340060000,11.371059814453124,-0.42117905616760254,6.8364715576171875,-6.007887840270996
1712835298360060000,11.391059814453126,-2.307170867919922,2.222153663635254,-1.6541624069213867
1712835298380060000,11.411059814453125,-5.317558765411377,2.8833818435668945,12.037095069885254
1712835298400060000,11.431059814453125,0.18944528698921204,1.3326950073242188,16.537046432495117
1712835298420060000,11.451059814453124,1.995784044265747,-0.026091575622558594,8.89278793334961
1712835298440060000,11.471059814453126,-5.685939788818359,1.8304424285888672,3.1998000144958496
1712835298460060000,11.491059814453125,-5.146145820617676,-0.4444541931152344,3.091550827026367
1712835298480060000,11.511059814453125,0.5971136689186096,-1.397200584411621,7.403076648712158
1712835298500060000,11.531059814453124,1.057374358177185,-0.5903501510620117,7.284686088562012
1712835298520060000,11.551059814453126,1.0732038021087646,0.9937744140625,3.4298319816589355
1712835298540060000,11.571059814453125,0.8379837274551392,0.7425765991210938,1.7067780494689941
1712835298560060200,11.59106005859375,0.49914637207984924,-0.1701068878173828,0.2950916290283203
1712835298580060200,11.61106005859375,-0.4870947003364563,-0.3043632507324219,-1.2288732528686523
1712835298600060200,11.63106005859375,-2.6130168437957764,-0.7598857879638672,-2.9602339267730713
1712835298620060200,11.65106005859375,-3.2715835571289062,-1.8087964057922363,-3.734274387359619
1712835298640060200,11.67106005859375,-1.4771052598953247,-2.5656609535217285,-2.206841230392456
1712835298660060000,11.691059814453125,-0.5086687803268433,-2.3147225379943848,-0.3208804130554199
1712835298680060000,11.711059814453124,-0.5287126302719116,-1.925929069519043,-0.03442716598510742
1712835298700060200,11.73106005859375,-1.39524507522583,-1.6622424125671387,-0.7254586219787598
1712835298720060200,11.75106005859375,-2.245637893676758,-1.6098079681396484,-0.8359756469726562
1712835298740060200,11.77106005859375,-2.2294468879699707,-1.6545777320861816,-0.501833438873291
1712835298760060200,11.79106005859375,-1.5372992753982544,-1.963487148284912,-0.4270496368408203
1712835298780060200,11.81106005859375,-0.7557492852210999,-2.613424777984619,-0.6478095054626465
1712835298800060000,11.831059814453125,-0.359419584274292,-2.361283779144287,-1.042017936706543
1712835298820060000,11.851059814453125,-0.8175358176231384,-0.09886741638183594,-1.7321257591247559
1712835298840060000,11.871059814453124,-0.6673213839530945,-0.2202777862548828,-1.548673152923584
1712835298860060000,11.891059814453126,-2.3460476398468018,3.1223535537719727,3.1111183166503906
1712835298880060000,11.911059814453125,-1.1347758769989014,4.481740951538086,9.633905410766602
1712835298900060000,11.931059814453125,-1.062636137008667,4.455385208129883,9.674798011779785
1712835298920060000,11.951059814453124,2.1517910957336426,3.5309457778930664,14.585693359375
1712835298940060000,11.971059814453126,2.1937007904052734,5.191484451293945,8.740949630737305
1712835298960060000,11.991059814453125,1.094934344291687,4.935639381408691,3.4422225952148438
1712835298980060000,12.011059814453125,-1.8024306297302246,3.6772632598876953,-0.8911457061767578
1712835299000060000,12.031059814453124,-4.044373512268066,1.7559528350830078,-4.339565753936768
1712835299020060000,12.051059814453126,2.7440497875213623,4.125725746154785,-2.4265992641448975
1712835299040060000,12.071059814453125,4.476226329803467,1.0908889770507812,-2.7116105556488037
1712835299060060200,12.09106005859375,3.702838897705078,1.459913730621338,-2.457557439804077
1712835299080060200,12.11106005859375,-7.865836143493652,0.014706611633300781,-11.864256858825684
1712835299100060200,12.13106005859375,-8.250791549682617,-2.8522891998291016,-9.271822929382324
1712835299120060200,12.15106005859375,-6.044145584106445,-2.7467355728149414,-2.728976249694824
1712835299140060200,12.17106005859375,-2.902865409851074,-2.9231040477752686,0.15481901168823242
1712835299160060000,12.191059814453125,-3.021310806274414,-1.6169719696044922,-0.7135009765625
1712835299180060000,12.211059814453124,-4.56946325302124,1.4729552268981934,-3.883415699005127
1712835299200060200,12.23106005859375,-5.0794501304626465,1.1214842796325684,-5.698281288146973
1712835299220060200,12.25106005859375,-5.0972771644592285,-1.1731176376342773,-3.695819139480591
1712835299240060200,12.27106005859375,-4.781940460205078,-0.9901318550109863,-2.2198710441589355
1712835299260060200,12.29106005859375,-2.9922337532043457,-0.0847463607788086,-2.2988905906677246
1712835299280060200,12.31106005859375,-1.7640714645385742,1.8788433074951172,-3.143214225769043
1712835299300060000,12.331059814453125,-2.2120819091796875,5.264572620391846,-5.168970584869385
1712835299320060000,12.351059814453125,-3.010157346725464,2.6241021156311035,-6.399873733520508
1712835299340060000,12.371059814453124,-7.133338928222656,1.6717567443847656,4.189361572265625
1712835299360060000,12.391059814453126,-1.07645845413208,4.807384490966797,22.028106689453125
1712835299380060000,12.411059814453125,5.781262397766113,-0.33568668365478516,14.620473861694336
1712835299400060000,12.431059814453125,6.094783782958984,-0.4027233123779297,14.703039169311523
1712835299420060000,12.451059814453124,2.7111902236938477,3.0361766815185547,3.097327709197998
1712835299440060000,12.471059814453126,1.7450861930847168,1.7621784210205078,0.5488333702087402
1712835299460060000,12.491059814453125,-0.4210892915725708,1.677515983581543,1.4372401237487793
1712835299480060000,12.511059814453125,-1.8699922561645508,0.7797813415527344,1.930790901184082
1712835299500060000,12.531059814453124,-1.5536001920700073,0.1390056610107422,1.6419849395751953
1712835299520060000,12.551059814453126,-0.5672723650932312,-1.4241843223571777,1.4300599098205566
1712835299540060000,12.571059814453125,-1.0632251501083374,-2.0878729820251465,1.0817999839782715
1712835299560060200,12.59106005859375,-2.2050905227661133,-1.9826726913452148,0.10462760925292969
1712835299580060200,12.61106005859375,-2.670856475830078,-1.4766645431518555,-0.9266648292541504
1712835299600060200,12.63106005859375,-1.712496280670166,-1.6046433448791504,-1.7479181289672852
1712835299620060200,12.65106005859375,-1.148669958114624,-1.995936393737793,-1.8860318660736084
1712835299640060200,12.67106005859375,-0.6685837507247925,-1.942298412322998,-1.4939594268798828
1712835299660060000,12.691059814453125,-0.3716326951980591,-1.8275866508483887,-1.1400995254516602
1712835299680060000,12.711059814453124,-0.5600473880767822,-1.4684391021728516,-1.1630959510803223
1712835299700060200,12.73106005859375,-0.33727121353149414,0.14789867401123047,-1.1896944046020508
1712835299720060200,12.75106005859375,-0.44662344455718994,2.265286922454834,-1.123006820678711
1712835299740060200,12.77106005859375,-0.3749784231185913,2.646792411804199,-0.16885709762573242
1712835299760060200,12.79106005859375,0.24927353858947754,0.7309598922729492,2.2179675102233887
1712835299780060200,12.81106005859375,0.8997029066085815,-0.5101809501647949,3.41127347946167
1712835299800060000,12.831059814453125,0.9435914754867554,-0.5732426643371582,3.498908519744873
1712835299820060000,12.851059814453125,0.6829278469085693,-0.1422128677368164,1.4075169563293457
1712835299840060000,12.871059814453124,0.1131584644317627,-0.02911663055419922,-0.2168564796447754
1712835299860060000,12.891059814453126,-0.6112220287322998,-0.3017454147338867,-1.2511610984802246
1712835299880060000,12.911059814453125,-0.8277178406715393,-0.44669198989868164,-1.2437748908996582
1712835299900060000,12.931059814453125,-1.2588775157928467,0.06290340423583984,-1.0553998947143555
1712835299920060000,12.951059814453124,-1.329233169555664,0.13268470764160156,-1.1381101608276367
1712835299940060000,12.971059814453126,-1.3676152229309082,0.8334431648254395,-0.9985589981079102
1712835299960060000,12.991059814453125,-1.4249992370605469,0.850745677947998,-1.0041561126708984
1712835299980060000,13.011059814453125,-0.8203954696655273,1.155198097229004,-0.7483129501342773
1712835300000060000,13.031059814453124,0.8953173160552979,2.557546615600586,-0.6813368797302246
1712835300020060000,13.051059814453126,1.5146336555480957,2.4883103370666504,-0.8002510070800781
1712835300040060000,13.071059814453125,2.037470579147339,1.3226900100708008,0.9641947746276855
1712835300060060200,13.09106005859375,2.1024177074432373,1.325305461883545,0.9343891143798828
1712835300080060200,13.11106005859375,-0.1426752805709839,-0.0841670036315918,2.3614754676818848
1712835300100060200,13.13106005859375,-0.11413049697875977,-0.025799274444580078,2.265821933746338
1712835300120060200,13.15106005859375,-1.1066112518310547,-0.038758277893066406,1.9046554565429688
1712835300140060200,13.17106005859375,-1.8021016120910645,0.7300014495849609,-1.6363816261291504
1712835300160060000,13.191059814453125,-1.9193813800811768,0.7971577644348145,-1.6824450492858887
1712835300180060000,13.211059814453124,-2.385049819946289,0.23561525344848633,-2.58362078666687
1712835300200060200,13.23106005859375,-2.1245453357696533,-0.4091038703918457,-2.2394776344299316
1712835300220060200,13.25106005859375,-1.453513741493225,-0.5624523162841797,-1.5346884727478027
1712835300240060200,13.27106005859375,-0.3065938949584961,-0.2125992774963379,-0.3926963806152344
1712835300260060200,13.29106005859375,0.20833563804626465,-0.28359365463256836,0.4981956481933594
1712835300280060200,13.31106005859375,1.0944149494171143,-1.1655068397521973,0.8596310615539551
1712835300300060000,13.331059814453125,1.185760259628296,-1.2155652046203613,0.1429295539855957
1712835300320060000,13.351059814453125,-0.03329324722290039,-0.4059615135192871,-0.3213529586791992
1712835300340060000,13.371059814453124,-0.3811981678009033,-0.828528881072998,0.9761509895324707
1712835300360060000,13.391059814453126,-0.5916030406951904,-0.8361263275146484,2.9079294204711914
1712835300380060000,13.411059814453125,-0.9534496068954468,0.0034856796264648438,2.5368690490722656
1712835300400060000,13.431059814453125,-0.5827451944351196,-0.5016670227050781,0.8842144012451172
1712835300420060000,13.451059814453124,-0.44856858253479004,-1.711186408996582,0.1944565773010254
1712835300440060000,13.471059814453126,-0.9613500833511353,-2.299403190612793,0.03488636016845703
1712835300460060000,13.491059814453125,-1.8498703241348267,-1.5397486686706543,0.47609472274780273
1712835300480060000,13.511059814453125,-1.8477959632873535,-1.5062789916992188,0.4275660514831543
1712835300500060000,13.531059814453124,-2.0461814403533936,-1.1377429962158203,0.742955207824707
1712835300520060000,13.551059814453126,-0.12259209156036377,-1.1745147705078125,0.7603411674499512
1712835300540060000,13.571059814453125,0.21055829524993896,-1.2419934272766113,0.37000036239624023
1712835300560060200,13.59106005859375,-0.17833757400512695,-1.3254704475402832,-0.16855430603027344
1712835300580060200,13.61106005859375,-0.2065967321395874,-1.3263297080993652,-0.15719175338745117
1712835300600060200,13.63106005859375,-1.3824598789215088,-2.2578182220458984,-1.7546329498291016
1712835300620060200,13.65106005859375,-1.3630962371826172,-2.251997947692871,-1.769789695739746
1712835300640060200,13.67106005859375,-1.3206690549850464,-2.1756234169006348,-1.5446157455444336
1712835300660060000,13.691059814453125,-1.0517834424972534,-0.04688310623168945,0.3378772735595703
1712835300680060000,13.711059814453124,-0.7889052629470825,0.17943286895751953,0.7101283073425293
1712835300700060200,13.73106005859375,-0.5960360765457153,-0.7489848136901855,0.43018436431884766
1712835300720060200,13.75106005859375,-0.7835264801979065,-1.4898881912231445,0.7070503234863281
1712835300740060200,13.77106005859375,-0.9437628984451294,-1.4816150665283203,0.6930618286132812
1712835300760060200,13.79106005859375,-0.8186193704605103,-1.3779211044311523,-0.02955150604248047
1712835300780060200,13.81106005859375,-0.7238216400146484,-1.4853029251098633,0.13097333908081055
1712835300800060000,13.831059814453125,-0.30938470363616943,2.5555953979492188,-0.7788481712341309
1712835300820060000,13.851059814453125,-2.2506632804870605,5.362890243530273,2.0426573753356934
1712835300840060000,13.871059814453124,-2.1922407150268555,5.263158798217773,8.172174453735352
1712835300860060000,13.891059814453126,-2.07769513130188,5.256093978881836,8.172341346740723
1712835300880060000,13.911059814453125,2.483435869216919,3.4171037673950195,16.053525924682617
1712835300900060000,13.931059814453125,0.4729273319244385,5.484491348266602,12.141688346862793
1712835300920060000,13.951059814453124,-1.6644043922424316,6.197880744934082,6.861137390136719
1712835300940060000,13.971059814453126,-2.299091339111328,6.234940052032471,1.0950627326965332
1712835300960060000,13.991059814453125,-5.660789489746094,3.4987974166870117,-3.7183902263641357
1712835300980060000,14.011059814453125,6.475092887878418,5.818213939666748,-5.200235843658447
1712835301000060000,14.031059814453124,5.191397666931152,0.6659121513366699,-5.639187335968018
1712835301020060000,14.051059814453126,-6.204099178314209,4.808660984039307,-12.579914093017578
1712835301040060000,14.071059814453125,-6.653308868408203,5.032936096191406,-12.454231262207031
1712835301060060200,14.09106005859375,-2.9158246517181396,-0.010982036590576172,-2.289303779602051
1712835301080060200,14.11106005859375,-2.616771936416626,-2.9068069458007812,-1.368309497833252
1712835301100060200,14.13106005859375,-4.6099042892456055,-2.4336259365081787,-4.112767219543457
1712835301120060200,14.15106005859375,-4.709026336669922,-1.9512345790863037,-6.11294412612915
1712835301140060200,14.17106005859375,-4.1834821701049805,-1.9787013530731201,-6.996855735778809
1712835301160060000,14.191059814453125,-3.752530574798584,-2.010605573654175,-4.6872944831848145
1712835301180060000,14.211059814453124,-2.5534956455230713,-2.178804397583008,-2.7134878635406494
1712835301200060200,14.23106005859375,-2.7591779232025146,-3.175600290298462,-1.603947639465332
1712835301220060200,14.25106005859375,-3.092749834060669,-2.576035976409912,-2.3385257720947266
1712835301240060200,14.27106005859375,-2.7564008235931396,-2.746272563934326,-2.422757625579834
1712835301260060200,14.29106005859375,-1.5451409816741943,-1.5244226455688477,-3.8992600440979004
1712835301280060200,14.31106005859375,-1.0865769386291504,4.797020435333252,-5.427161693572998
1712835301300060000,14.331059814453125,-0.5054006576538086,3.6903328895568848,-3.7885565757751465
1712835301320060000,14.351059814453125,0.12870240211486816,3.3313703536987305,-3.6217312812805176
1712835301340060000,14.371059814453124,-2.7138285636901855,1.4865097999572754,4.251026630401611
1712835301360060000,14.391059814453126,-1.305579662322998,2.640124797821045,7.852424144744873
1712835301380060000,14.411059814453125,-0.9745745658874512,2.4335384368896484,8.102447509765625
1712835301400060000,14.431059814453125,3.3078925609588623,2.489765167236328,4.689413547515869
1712835301420060000,14.451059814453124,1.387467384338379,1.3229331970214844,4.170993804931641
1712835301440060000,14.471059814453126,-0.7587366104125977,0.8248929977416992,5.727139472961426
1712835301460060000,14.491059814453125,-0.6950187683105469,0.8379793167114258,5.703210830688477
1712835301480060000,14.511059814453125,-1.378151297569275,-0.46470117568969727,5.033670425415039
1712835301500060000,14.531059814453124,-0.3579575717449188,-0.7503690719604492,3.615260124206543
1712835301520060000,14.551059814453126,-0.6040398478507996,-0.6505270004272461,3.480863571166992
1712835301540060000,14.571059814453125,-0.8351584672927856,0.021703720092773438,-0.7497210502624512
1712835301560060200,14.59106005859375,-1.0908153057098389,0.7913966178894043,-2.2919492721557617
1712835301580060200,14.61106005859375,-1.3101954460144043,0.9132037162780762,-2.4127941131591797
1712835301600060200,14.63106005859375,-0.923358142375946,-0.43710851669311523,-1.661299228668213
1712835301620060200,14.65106005859375,-0.5044825077056885,-1.3576107025146484,-0.8071761131286621
1712835301640060200,14.67106005859375,-0.5757431983947754,-1.3236708641052246,-0.8312978744506836
1712835301660060000,14.691059814453125,-0.033844709396362305,-2.4717063903808594,-0.5934991836547852
1712835301680060000,14.711059814453124,0.19375813007354736,-3.08626651763916,-0.5695891380310059
1712835301700060200,14.73106005859375,-0.4514467716217041,-2.9061923027038574,-1.007957935333252
1712835301720060200,14.75106005859375,-1.3888957500457764,-1.9073810577392578,-1.285707950592041
1712835301740060200,14.77106005859375,-2.115962505340576,-1.3559932708740234,-1.3468050956726074
1712835301760060200,14.79106005859375,-1.3487311601638794,-1.8533401489257812,-0.7258062362670898
1712835301780060200,14.81106005859375,-0.5959368348121643,-1.6255393028259277,-0.2943758964538574
1712835301800060000,14.831059814453125,-0.5514234900474548,-0.8736581802368164,-0.899320125579834
1712835301820060000,14.851059814453125,-0.4908871650695801,-0.1745624542236328,-1.015974998474121
1712835301840060000,14.871059814453124,-1.1124393939971924,0.06856250762939453,-0.6010570526123047
1712835301860060000,14.891059814453126,-1.6268947124481201,1.215688705444336,0.23961353302001953
1712835301880060000,14.911059814453125,-3.414599657058716,2.6092214584350586,2.7523865699768066
1712835301900060000,14.931059814453125,-1.531588077545166,2.367743492126465,8.375332832336426
1712835301920060000,14.951059814453124,3.2747740745544434,1.3849430084228516,10.56993293762207
1712835301940060000,14.971059814453126,4.103005886077881,2.548853874206543,9.244047164916992
1712835301960060000,14.991059814453125,3.2141056060791016,2.542461395263672,7.718982219696045
1712835301980060000,15.011059814453125,2.732973098754883,2.6529130935668945,7.626377105712891
1712835302000060000,15.031059814453124,-0.10808455944061279,2.9482717514038086,1.9112133979797363
1712835302020060000,15.051059814453126,-2.9160239696502686,2.3947830200195312,-3.1707897186279297
1712835302040060000,15.071059814453125,-3.50117826461792,2.639296531677246,-3.2359304428100586
1712835302060060200,15.09106005859375,7.770605087280273,3.1313114166259766,-0.7707514762878418
1712835302080060200,15.11106005859375,7.060615062713623,3.4448561668395996,-0.6432275772094727
1712835302100060200,15.13106005859375,-4.586918354034424,0.9382166862487793,-6.110246658325195
1712835302120060200,15.15106005859375,-6.074527263641357,0.8910198211669922,-9.515751838684082
1712835302140060200,15.17106005859375,-4.230188369750977,-0.5280270576477051,-5.289542198181152
1712835302160060000,15.191059814453125,-3.062199831008911,-1.2928929328918457,-0.36225318908691406
1712835302180060000,15.211059814453124,-2.822305679321289,-2.276165008544922,0.2448124885559082
1712835302200060200,15.23106005859375,-4.28691291809082,-1.7904162406921387,-2.663670063018799
1712835302220060200,15.25106005859375,-4.207682132720947,-1.859461784362793,-2.6582608222961426
1712835302240060200,15.27106005859375,-6.574560165405273,-0.5999698638916016,-3.7547740936279297
1712835302260060200,15.29106005859375,-4.299741744995117,-1.1014518737792969,-2.3511178493499756
1712835302280060200,15.31106005859375,-2.0033648014068604,-0.6585264205932617,-2.7749009132385254
1712835302300060000,15.331059814453125,-2.6072821617126465,0.46892309188842773,-5.268634796142578
1712835302320060000,15.351059814453125,-1.2279126644134521,3.8178868293762207,-6.691298961639404
1712835302340060000,15.371059814453124,2.7959060668945312,2.284852981567383,-2.2104387283325195
1712835302360060000,15.391059814453126,2.257741928100586,1.8188104629516602,8.508464813232422
1712835302380060000,15.411059814453125,2.9365153312683105,1.6971168518066406,8.493712425231934
1712835302400060000,15.431059814453125,0.48838627338409424,3.1293535232543945,6.542827129364014
1712835302420060000,15.451059814453124,-4.117225646972656,2.608226776123047,4.11313009262085
1712835302440060000,15.471059814453126,-4.063143730163574,2.5756664276123047,4.170416355133057
1712835302460060000,15.491059814453125,0.2336614727973938,-0.6546382904052734,4.923393249511719
1712835302480060000,15.511059814453125,0.24678224325180054,-0.6313724517822266,4.876827239990234
1712835302500060000,15.531059814453124,1.096039056777954,-0.22181129455566406,3.833554744720459
1712835302520060000,15.551059814453126,-0.4107421040534973,0.807826042175293,2.2951931953430176
1712835302540060000,15.571059814453125,-0.5907803773880005,0.9010982513427734,2.153621196746826
1712835302560060200,15.59106005859375,0.1701592206954956,-1.0204830169677734,0.23777008056640625
1712835302580060200,15.61106005859375,-0.09848260879516602,-0.9052619934082031,0.10821294784545898
1712835302600060200,15.63106005859375,-1.9637328386306763,-1.3442816734313965,-2.3414111137390137
1712835302620060200,15.65106005859375,-2.0972633361816406,-1.2919068336486816,-2.3834176063537598
1712835302640060200,15.67106005859375,-2.0244126319885254,-1.9934229850769043,-1.7321598529815674
1712835302660060000,15.691059814453125,-1.2546532154083252,-2.064986228942871,0.1735086441040039
1712835302680060000,15.711059814453124,0.027002573013305664,-1.4884843826293945,0.9482622146606445
1712835302700060200,15.73106005859375,-0.4463779926300049,-1.7377004623413086,0.6133508682250977
1712835302720060200,15.75106005859375,-1.054213285446167,-2.2626290321350098,0.12360763549804688
1712835302740060200,15.77106005859375,-1.542631983757019,-2.4676666259765625,-0.682924747467041
1712835302760060200,15.79106005859375,-1.3589973449707031,-2.3638458251953125,-1.488670825958252
1712835302780060200,15.81106005859375,-1.421813726425171,-1.6259336471557617,-1.963998556137085
1712835302800060000,15.831059814453125,-1.202100396156311,-0.7729172706604004,-1.8134095668792725
1712835302820060000,15.851059814453125,-0.7882226705551147,0.039557456970214844,-1.02485990524292
1712835302840060000,15.871059814453124,-0.5856740474700928,-0.05503368377685547,-0.8944711685180664
1712835302860060000,15.891059814453126,-2.4013192653656006,2.3011302947998047,2.226057529449463
1712835302880060000,15.911059814453125,-1.7822537422180176,3.0117950439453125,8.003715515136719
1712835302900060000,15.931059814453125,2.2919602394104004,1.5861215591430664,10.243339538574219
1712835302920060000,15.951059814453124,2.269737720489502,1.5775651931762695,10.265127182006836
1712835302940060000,15.971059814453126,4.527557373046875,2.0554304122924805,10.464829444885254
1712835302960060000,15.991059814453125,0.2760016918182373,3.452554702758789,3.574432849884033
1712835302980060000,16.011059814453127,-0.2311558723449707,3.6028099060058594,3.4475302696228027
1712835303000060000,16.031059814453126,-0.6103723049163818,2.845256805419922,-0.48900556564331055
1712835303020060000,16.051059814453126,-1.097092866897583,3.0697717666625977,-0.6306962966918945
1712835303040060000,16.071059814453125,2.3778278827667236,3.760054111480713,-3.734467029571533
1712835303060060200,16.09106005859375,6.040882587432861,1.2458510398864746,-2.1575732231140137
1712835303080060200,16.11106005859375,5.407800674438477,1.486128330230713,-1.9736552238464355
1712835303100060200,16.13106005859375,-5.62245512008667,0.08544397354125977,-6.984905242919922
1712835303120060200,16.15106005859375,-6.496572494506836,-0.0686655044555664,-6.477848052978516
1712835303140060200,16.17106005859375,-4.610998630523682,-1.2612004280090332,-2.086569309234619
1712835303160060000,16.191059814453126,-4.663496494293213,-1.148735523223877,-2.2089357376098633
1712835303180060000,16.211059814453126,-3.715083360671997,-2.661241054534912,-1.229442834854126
1712835303200060200,16.23106005859375,-4.812382698059082,-1.6310033798217773,-2.9582924842834473
1712835303220060200,16.25106005859375,-4.750447750091553,-1.7182364463806152,-2.89272403717041
1712835303240060200,16.27106005859375,-4.514836311340332,-0.5597896575927734,-4.212015628814697
1712835303260060200,16.29106005859375,-4.18355655670166,-0.739586353302002,-4.2921342849731445
1712835303280060200,16.31106005859375,-2.245023727416992,0.6113495826721191,-4.354771614074707
1712835303300060000,16.331059814453123,-1.5715487003326416,0.3538045883178711,-4.506332874298096
1712835303320060000,16.351059814453127,3.366543769836426,3.481595039367676,-3.921818494796753
1712835303340060000,16.371059814453126,-1.6080031394958496,-0.5652270317077637,0.929013729095459
1712835303360060000,16.391059814453126,-0.7669578790664673,-0.7415213584899902,0.9454231262207031
1712835303380060000,16.411059814453125,1.4215881824493408,1.5483675003051758,12.144174575805664
1712835303400060000,16.431059814453125,2.1565208435058594,0.7550163269042969,7.134146690368652
1712835303420060000,16.451059814453124,2.2099037170410156,0.7149314880371094,7.208431243896484
1712835303440060000,16.471059814453124,2.2351763248443604,1.5298175811767578,1.7365493774414062
1712835303460060000,16.491059814453124,1.4839563369750977,-0.1796550750732422,5.014341831207275
1712835303480060000,16.511059814453127,1.4930555820465088,-0.10891437530517578,4.8796210289001465
1712835303500060000,16.531059814453126,0.5847901701927185,0.13967227935791016,3.07637357711792
1712835303520060000,16.551059814453126,0.24619567394256592,-0.6132631301879883,1.8139634132385254
1712835303540060000,16.571059814453125,-0.0281561017036438,-0.4777212142944336,1.6268982887268066
1712835303560060200,16.59106005859375,-2.5035367012023926,-0.014840126037597656,-0.9285788536071777
1712835303580060200,16.61106005859375,-2.701855182647705,0.08945846557617188,-1.0422005653381348
1712835303600060200,16.63106005859375,-3.1008477210998535,-0.8213872909545898,-1.8772165775299072
1712835303620060200,16.65106005859375,-1.9676661491394043,-1.3244547843933105,-1.0478415489196777
1712835303640060200,16.67106005859375,0.19498193264007568,-2.7999587059020996,0.4132881164550781
1712835303660060000,16.691059814453126,0.14162063598632812,-2.6460061073303223,0.26846742630004883
1712835303680060000,16.711059814453126,0.10139787197113037,-2.640993595123291,0.2711334228515625
1712835303700060200,16.73106005859375,-0.9184339046478271,-1.8367624282836914,-1.6043105125427246
1712835303720060200,16.75106005859375,-1.1337696313858032,-1.698228359222412,-2.3233940601348877
1712835303740060200,16.77106005859375,-1.1082751750946045,-1.7467126846313477,-2.2608916759490967
1712835303760060200,16.79106005859375,-1.2631477117538452,-1.5088138580322266,-2.0910892486572266
1712835303780060200,16.81106005859375,-1.2056561708450317,-1.4757575988769531,-1.3643097877502441
1712835303800060000,16.831059814453123,-1.161391258239746,-1.5397515296936035,0.44869136810302734
1712835303820060000,16.851059814453127,-0.5601239204406738,-2.004284381866455,0.9325046539306641
1712835303840060000,16.871059814453126,0.0940583348274231,-2.1713943481445312,0.7537751197814941
1712835303860060000,16.891059814453126,0.4420207142829895,-2.225891590118408,-0.38557958602905273
1712835303880060000,16.911059814453125,-0.3617538809776306,-0.5732536315917969,-1.2302656173706055
1712835303900060000,16.931059814453125,-1.8366260528564453,2.9316606521606445,-0.5456652641296387
1712835303920060000,16.951059814453124,-0.7645623683929443,5.367057800292969,5.160305023193359
1712835303940060000,16.971059814453124,3.054518222808838,4.455381393432617,12.506688117980957
1712835303960060000,16.991059814453124,3.465217113494873,2.431931495666504,13.693826675415039
1712835303980060000,17.011059814453127,1.463294267654419,3.9258298873901367,12.72623348236084
1712835304000060000,17.031059814453126,1.034314513206482,4.031928062438965,12.565340995788574
1712835304020060000,17.051059814453126,0.9479198455810547,4.744631767272949,3.269561767578125
1712835304040060000,17.071059814453125,-2.628875494003296,3.9501876831054688,0.4598255157470703
1712835304060060200,17.09106005859375,-3.733889102935791,3.320650100708008,-4.377757549285889
1712835304080060200,17.11106005859375,1.250566005706787,3.626619815826416,-3.452641248703003
1712835304100060200,17.13106005859375,4.416595935821533,1.7662787437438965,-1.7656874656677246
1712835304120060200,17.15106005859375,-0.945732593536377,-0.12892484664916992,-2.872354745864868
1712835304140060200,17.17106005859375,-7.5161662101745605,2.0864195823669434,-7.023298740386963
1712835304160060000,17.191059814453126,-7.77451229095459,1.0828266143798828,-7.944980144500732
1712835304180060000,17.211059814453126,-5.269489765167236,-2.5366110801696777,-3.3777894973754883
1712835304200060200,17.23106005859375,-2.750717878341675,-4.72691011428833,-0.6593327522277832
1712835304220060200,17.25106005859375,-2.810415029525757,-4.633204936981201,-0.7109274864196777
1712835304240060200,17.27106005859375,-3.1515913009643555,-4.169093608856201,-1.627302646636963
1712835304260060200,17.29106005859375,-4.95476770401001,-2.81001615524292,-5.423000335693359
1712835304280060200,17.31106005859375,-3.5454750061035156,-1.4471874237060547,-5.104187965393066
1712835304300060000,17.331059814453123,-0.6651334762573242,0.742678165435791,-1.645601511001587
1712835304320060000,17.351059814453127,-0.4885830879211426,0.589928150177002,-2.890643835067749
1712835304340060000,17.371059814453126,-0.5439865589141846,1.845801830291748,-5.9201836585998535
1712835304360060000,17.391059814453126,0.3989427089691162,3.2437915802001953,-6.689853668212891
1712835304380060000,17.411059814453125,1.1733739376068115,2.932962417602539,-6.719972610473633
1712835304400060000,17.431059814453125,-4.585312843322754,3.6896400451660156,3.4075708389282227
1712835304420060000,17.451059814453124,-0.9745023250579834,2.872854709625244,8.726740837097168
1712835304440060000,17.471059814453124,-0.07772332429885864,1.5589780807495117,6.918349266052246
1712835304460060000,17.491059814453124,-3.3034846782684326,0.8653755187988281,2.9679408073425293
1712835304480060000,17.511059814453127,-3.081965923309326,0.037322044372558594,4.568926811218262
1712835304500060000,17.531059814453126,2.1402058601379395,-0.3132762908935547,6.999316215515137
1712835304520060000,17.551059814453126,2.3693299293518066,-0.3238859176635742,7.008431911468506
1712835304540060000,17.571059814453125,1.1451196670532227,1.651442527770996,9.101128578186035
1712835304560060200,17.59106005859375,1.4285986423492432,1.1300411224365234,5.854763984680176
1712835304580060200,17.61106005859375,0.9778788089752197,1.0718297958374023,2.202289581298828
1712835304600060200,17.63106005859375,0.5327089428901672,1.1601266860961914,2.121039390563965
1712835304620060200,17.65106005859375,-3.14804744720459,-1.103926181793213,-4.222341060638428
1712835304640060200,17.67106005859375,-3.8018853664398193,-1.480949878692627,-4.999454021453857
1712835304660060000,17.691059814453126,-3.856606960296631,-1.4261317253112793,-5.068240642547607
1712835304680060000,17.711059814453126,-1.6985771656036377,-1.5661773681640625,-2.5014989376068115
1712835304700060200,17.73106005859375,1.683971881866455,-2.0678539276123047,3.2699732780456543
1712835304720060200,17.75106005859375,0.9421329498291016,-2.3311381340026855,2.5282483100891113
1712835304740060200,17.77106005859375,-1.1934844255447388,-1.419294834136963,0.9931735992431641
1712835304760060200,17.79106005859375,-2.523801803588867,-1.2775793075561523,-0.48406457901000977
1712835304780060200,17.81106005859375,-2.6690547466278076,-1.893280029296875,-1.3732454776763916
1712835304800060000,17.831059814453123,-2.2877120971679688,-2.2616429328918457,-1.6564998626708984
1712835304820060000,17.851059814453127,-1.962453007698059,-2.0931167602539062,-1.6004271507263184
1712835304840060000,17.871059814453126,-1.6702454090118408,-2.0955400466918945,-1.3397197723388672
1712835304860060000,17.891059814453126,-1.0077296495437622,-1.848465919494629,-0.6820459365844727
1712835304880060000,17.911059814453125,-0.8895074129104614,-1.9285516738891602,-0.5744361877441406
1712835304900060000,17.931059814453125,-0.12155795097351074,-1.616898536682129,-0.7120523452758789
1712835304920060000,17.951059814453124,-0.4091840386390686,0.43569087982177734,-1.5464892387390137
1712835304940060000,17.971059814453124,-1.1350878477096558,3.032071113586426,0.2982974052429199
1712835304960060000,17.991059814453124,-1.0100138187408447,2.972426414489746,0.3927445411682129
1712835304980060000,18.011059814453127,3.3528897762298584,2.775242805480957,9.932538032531738
1712835305000060000,18.031059814453126,4.6701579093933105,2.7739028930664062,8.394729614257812
1712835305020060000,18.051059814453126,3.1581006050109863,4.4329071044921875,6.557418346405029
1712835305040060000,18.071059814453125,2.973626136779785,4.10557746887207,4.666743278503418
1712835305060060200,18.09106005859375,2.518185615539551,3.6755752563476562,1.9469714164733887
1712835305080060200,18.11106005859375,0.012361526489257812,3.0204648971557617,0.046489715576171875
1712835305100060200,18.13106005859375,-0.5012681484222412,3.2838172912597656,-0.09247064590454102
1712835305120060200,18.15106005859375,-4.068341255187988,2.105741500854492,-2.6964821815490723
1712835305140060200,18.17106005859375,0.029634952545166016,3.0818095207214355,-2.673962116241455
1712835305160060000,18.191059814453126,4.951502323150635,3.4226326942443848,-1.0345327854156494
1712835305180060000,18.211059814453126,-5.651827812194824,0.05278778076171875,-3.711730718612671
1712835305200060200,18.23106005859375,-8.476069450378418,-0.12661314010620117,-6.775600910186768
1712835305220060200,18.25106005859375,-6.111026763916016,-1.5484943389892578,-4.096423625946045
1712835305240060200,18.27106005859375,-6.128056049346924,-1.407517910003662,-4.273864269256592
1712835305260060200,18.29106005859375,-3.666926622390747,-2.8975095748901367,-0.28510332107543945
1712835305280060200,18.31106005859375,-4.834676265716553,-3.0301754474639893,-3.2409911155700684
1712835305300060000,18.331059814453123,-4.83085823059082,-3.164560079574585,-3.059683322906494
1712835305320060000,18.351059814453127,-7.0908308029174805,-1.2838754653930664,-8.715702056884766
1712835305340060000,18.371059814453126,-6.758503437042236,-1.6429862976074219,-8.565961837768555
1712835305360060000,18.391059814453126,-2.9233126640319824,5.415495872497559,-5.718151569366455
1712835305380060000,18.411059814453125,-0.3791944980621338,9.738056182861328,-3.617086887359619
1712835305400060000,18.431059814453125,2.522556781768799,6.838366508483887,7.758021354675293
1712835305420060000,18.451059814453124,2.6693923473358154,-0.12745952606201172,18.791452407836914
1712835305440060000,18.471059814453124,0.981212854385376,-2.397213935852051,19.387535095214844
1712835305460060000,18.491059814453124,1.4053562879562378,-2.4446802139282227,19.369068145751953
1712835305480060000,18.511059814453127,2.2761125564575195,1.4264965057373047,-0.13877105712890625
1712835305500060000,18.531059814453126,2.028280735015869,1.4703521728515625,-0.15921592712402344
1712835305520060000,18.551059814453126,4.54867696762085,1.8595809936523438,-0.6414875984191895
1712835305540060000,18.571059814453125,2.297640323638916,2.4893617630004883,-1.7452633380889893
1712835305560060200,18.59106005859375,0.9104140996932983,1.1376361846923828,-0.2716341018676758
1712835305580060200,18.61106005859375,0.6838853359222412,1.2791428565979004,-0.3989734649658203
1712835305600060200,18.63106005859375,-0.6512086391448975,-1.3060317039489746,-1.859816074371338
1712835305620060200,18.65106005859375,-2.941516399383545,-2.480832576751709,-1.844238519668579
1712835305640060200,18.67106005859375,-3.0646517276763916,-2.334235191345215,-1.985342264175415
1712835305660060000,18.691059814453126,-4.047160625457764,-1.1996402740478516,-1.1086268424987793
1712835305680060000,18.711059814453126,-2.951503038406372,-1.4566946029663086,-0.36203527450561523
1712835305700060200,18.73106005859375,-1.2768113613128662,-1.947763442993164,0.2095351219177246
1712835305720060200,18.75106005859375,-0.40840935707092285,-1.634697437286377,0.6111102104187012
1712835305740060200,18.77106005859375,-0.5048400163650513,-0.2950925827026367,0.374725341796875
1712835305760060200,18.79106005859375,-1.0727417469024658,0.9694347381591797,-0.025303363800048828
1712835305780060200,18.81106005859375,-0.928816556930542,-0.24850797653198242,-0.2375035285949707
1712835305800060000,18.831059814453123,-0.40842199325561523,-1.7261857986450195,0.03722190856933594
1712835305820060000,18.851059814453127,0.030247211456298828,-2.081789970397949,-0.016715049743652344
1712835305840060000,18.871059814453126,0.34233713150024414,-1.5349888801574707,0.34379005432128906
1712835305860060000,18.891059814453126,0.3486175537109375,-1.092977523803711,0.6842460632324219
1712835305880060000,18.911059814453125,0.42491352558135986,-1.1235694885253906,0.6950969696044922
1712835305900060000,18.931059814453125,-0.004873752593994141,-0.8093757629394531,0.9120631217956543
1712835305920060000,18.951059814453124,-0.8339033126831055,-0.7467494010925293,-0.4029507637023926
1712835305940060000,18.971059814453124,-0.9037796258926392,-0.3911910057067871,-0.8934664726257324
1712835305960060000,18.991059814453124,-0.6483039855957031,-0.8264012336730957,-0.715693473815918
1712835305980060000,19.011059814453127,-0.611678957939148,-1.1260404586791992,-0.13446283340454102
1712835306000060000,19.031059814453126,-0.5527350902557373,-1.1880717277526855,-0.07501745223999023
1712835306020060000,19.051059814453126,-0.6745396852493286,-1.6735663414001465,0.5747923851013184
1712835306040060000,19.071059814453125,-0.9785169959068298,-1.0878238677978516,-0.18801212310791016
1712835306060060200,19.09106005859375,-0.9727980494499207,-1.118177890777588,-1.1765565872192383
1712835306080060200,19.11106005859375,-0.9095270037651062,-1.2273788452148438,-1.0426716804504395
1712835306100060200,19.13106005859375,-0.9034168124198914,-1.749669075012207,-1.3078808784484863
1712835306120060200,19.15106005859375,-1.0523433685302734,-2.308826446533203,-0.5643429756164551
1712835306140060200,19.17106005859375,-1.2680507898330688,-1.9717826843261719,-1.688828945159912
1712835306160060000,19.191059814453126,-1.411982536315918,-1.5653467178344727,-1.2750160694122314
1712835306180060000,19.211059814453126,-1.3812264204025269,-1.5703444480895996,-0.15599346160888672
1712835306200060200,19.23106005859375,-1.654180884361267,1.3297252655029297,1.3564739227294922
1712835306220060200,19.25106005859375,-2.374727964401245,5.170370101928711,4.745088577270508
1712835306240060200,19.27106005859375,-2.2488927841186523,5.120713233947754,4.829218864440918
1712835306260060200,19.29106005859375,5.175591945648193,3.7111825942993164,16.48969841003418
1712835306280060200,19.31106005859375,4.877607345581055,3.793787956237793,16.368526458740234
1712835306300060000,19.331059814453123,0.3359870910644531,7.168354034423828,9.803083419799805
1712835306320060000,19.351059814453127,-0.9368377923965454,6.324024200439453,4.66787576675415
1712835306340060000,19.371059814453126,-2.8012571334838867,6.934946060180664,-0.8323841094970703
1712835306360060000,19.391059814453126,-6.151055335998535,3.7744970321655273,-4.205533027648926
1712835306380060000,19.411059814453125,0.23193597793579102,2.3057713508605957,-2.006113052368164
1712835306400060000,19.431059814453125,4.820887565612793,-0.5819058418273926,-2.158100128173828
1712835306420060000,19.451059814453124,-1.6775081157684326,1.7090048789978027,-9.000943183898926
1712835306440060000,19.471059814453124,-2.169546365737915,1.9192566871643066,-8.777997970581055
1712835306460060000,19.491059814453124,-5.5345072746276855,2.4766769409179688,-10.439674377441406
1712835306480060000,19.511059814453127,-5.255187034606934,-0.4703812599182129,-4.582231521606445
1712835306500060000,19.531059814453126,-5.289062976837158,-0.32166194915771484,-4.719977855682373
1712835306520060000,19.551059814453126,-5.664970874786377,-3.5897648334503174,-5.2291107177734375
1712835306540060000,19.571059814453125,-4.997093200683594,-4.077001571655273,-5.887477397918701
1712835306560060200,19.59106005859375,-4.851195335388184,-4.146814346313477,-5.963546276092529
1712835306580060200,19.61106005859375,-3.383510112762451,-2.8628294467926025,-6.487200736999512
1712835306600060200,19.63106005859375,-2.116520404815674,-1.047370433807373,-6.449412822723389
1712835306620060200,19.65106005859375,-1.647334098815918,-1.264514446258545,-6.597788333892822
1712835306640060200,19.67106005859375,-1.9925000667572021,0.6795506477355957,-7.1273956298828125
1712835306660060000,19.691059814453126,-0.7015368938446045,5.831227779388428,-5.158480167388916
1712835306680060000,19.711059814453126,0.03406119346618652,5.447577953338623,-5.034297466278076
1712835306700060200,19.73106005859375,-0.8996195197105408,2.9500412940979004,0.16303634643554688
1712835306720060200,19.75106005859375,-1.7388179302215576,1.6586055755615234,9.147375106811523
1712835306740060200,19.77106005859375,-1.2806501388549805,1.4697065353393555,9.370046615600586
1712835306760060200,19.79106005859375,-2.980278253555298,2.7677555084228516,10.961893081665039
1712835306780060200,19.81106005859375,-0.03749285638332367,-0.21969127655029297,7.052863121032715
1712835306800060000,19.831059814453123,2.151427745819092,0.21610641479492188,6.5418572425842285
1712835306820060000,19.851059814453127,1.7068277597427368,0.4331502914428711,6.265663146972656
1712835306840060000,19.871059814453126,0.14316198229789734,1.0958614349365234,3.7996740341186523
1712835306860060000,19.891059814453126,-0.27637627720832825,0.7786617279052734,0.8657922744750977
1712835306880060000,19.911059814453125,-0.8886211514472961,-0.4199399948120117,-0.7451410293579102
1712835306900060000,19.931059814453125,-2.42958927154541,-1.8125228881835938,-2.1449191570281982
1712835306920060000,19.951059814453124,-2.6851749420166016,-2.508335590362549,-3.0209431648254395
1712835306940060000,19.971059814453124,-2.7608590126037598,-2.4507484436035156,-3.0857834815979004
1712835306960060000,19.991059814453124,-1.4966332912445068,-1.3502168655395508,-0.03900289535522461
1712835306980060000,20.011059814453127,-1.3749005794525146,-1.3429327011108398,-0.07801485061645508
1712835307000060000,20.031059814453126,-1.3201911449432373,-0.8134994506835938,2.063271999359131
1712835307020060000,20.051059814453126,-1.3384333848953247,-0.9140658378601074,1.8437190055847168
1712835307040060000,20.071059814453125,-1.3469511270523071,-0.9673161506652832,1.922999382019043
1712835307060060200,20.09106005859375,-1.0798066854476929,-1.5570154190063477,1.108510971069336
1712835307080060000,20.111059814453125,-1.2937041521072388,-1.2395596504211426,-0.8256430625915527
1712835307100060000,20.131059814453124,-1.2725886106491089,-1.3322157859802246,-0.6834292411804199
1712835307120060000,20.151059814453124,-1.9208582639694214,-1.9098286628723145,-1.1203789710998535
1712835307140060200,20.17106005859375,-1.0346304178237915,-1.9934263229370117,-0.31760072708129883
1712835307160060000,20.191059814453126,-1.3851988315582275,-1.137983798980713,-0.6442604064941406
1712835307180060000,20.211059814453126,-1.2856948375701904,-1.0492167472839355,-0.7368500232696533
1712835307200060200,20.23106005859375,-1.2478160858154297,-0.00046825408935546875,0.1143031120300293
1712835307220060200,20.25106005859375,-1.9979779720306396,3.685262680053711,1.3421363830566406
1712835307240060200,20.27106005859375,-1.8814966678619385,3.658759117126465,1.389319896697998
1712835307260060200,20.29106005859375,2.6722795963287354,3.002194404602051,10.995802879333496
1712835307280060200,20.31106005859375,2.5590553283691406,3.037942886352539,10.928638458251953
1712835307300060000,20.331059814453123,2.284928560256958,4.013702392578125,8.413177490234375
1712835307320060000,20.351059814453127,-0.12318241596221924,4.488112449645996,3.3180084228515625
1712835307340059400,20.371059326171874,0.0301741361618042,2.708433151245117,-0.657780647277832
1712835307360026000,20.391026123046874,-0.5789586305618286,2.985711097717285,-0.862241268157959
1712835307379992800,20.410992919921874,-2.4923512935638428,1.5780091285705566,-3.872662305831909
1712835307399959600,20.43095947265625,1.7584068775177002,2.992945671081543,-1.3437690734863281
1712835307419926800,20.4509267578125,3.01993989944458,1.8336730003356934,-3.0362889766693115
1712835307439893500,20.4708935546875,1.6696796417236328,1.331160545349121,-5.368242263793945
1712835307459860200,20.490860107421874,-3.0265753269195557,1.5900487899780273,-4.7178850173950195
1712835307479826000,20.510825927734373,-5.982249736785889,0.5481472015380859,-6.220297813415527
1712835307499792600,20.530792724609373,-6.080780029296875,0.6877985000610352,-6.2954511642456055
1712835307519759000,20.550759033203125,-4.200743198394775,-1.2782177925109863,-1.0791206359863281
1712835307539725800,20.570725830078125,-3.025420665740967,-1.752347469329834,-0.2526216506958008
1712835307559692000,20.590692138671876,-4.050685405731201,-1.7391233444213867,-1.9007599353790283
1712835307579658800,20.61065869140625,-5.351011753082275,-0.7176194190979004,-4.071501731872559
1712835307599625500,20.63062548828125,-5.134650230407715,-0.10497522354125977,-5.433177471160889
1712835307619592200,20.65059228515625,-3.6225717067718506,0.12764215469360352,-6.093423843383789
1712835307639558700,20.67055859375,-2.641228199005127,0.1350855827331543,-6.340324401855469
1712835307659525000,20.690525146484376,-2.8293752670288086,1.6960301399230957,-5.976701736450195
1712835307679492400,20.710492431640624,-2.1086483001708984,1.3814969062805176,-6.10284423828125
1712835307699458800,20.730458740234376,0.1005713939666748,4.662757873535156,-6.384806156158447
1712835307719425500,20.750425537109376,-2.3774774074554443,1.4123272895812988,7.406214714050293
1712835307739391700,20.770391845703124,1.182693600654602,0.8920688629150391,13.626541137695312
1712835307759358500,20.7903583984375,-0.5843496918678284,0.5529632568359375,6.861777305603027
1712835307779325400,20.810325439453123,-2.892779588699341,1.747610092163086,4.3038763999938965
1712835307799292000,20.8302919921875,1.976388692855835,0.04514884948730469,2.8308639526367188
1712835307819258400,20.85025830078125,2.065666913986206,0.04420661926269531,2.818924903869629
1712835307839225000,20.87022509765625,1.4187078475952148,0.7993783950805664,4.297677516937256
1712835307859191800,20.89019189453125,-0.5443602800369263,0.9984579086303711,4.173218250274658
1712835307879158500,20.910158447265626,-0.07097494602203369,0.6252508163452148,3.9693470001220703
1712835307899125000,20.930125,-0.9872477054595947,-0.0700216293334961,2.0387773513793945
1712835307919092000,20.950092041015626,-2.158508777618408,-0.5454058647155762,-0.4219675064086914
1712835307939059200,20.97005908203125,-2.954596757888794,-0.7269010543823242,-2.2306599617004395
1712835307959059200,20.99005908203125,-3.121795654296875,-0.6226725578308105,-2.3316779136657715
1712835307979059200,21.01005908203125,-3.1580147743225098,-1.2746925354003906,-2.772005796432495
1712835307999059200,21.03005908203125,-2.0929598808288574,-1.7658839225769043,-1.549530029296875
1712835308019058400,21.050058349609376,-1.0885615348815918,-2.347564220428467,0.022850513458251953
1712835308039058400,21.070058349609376,-0.39639031887054443,-2.3972296714782715,0.674039363861084
1712835308059058400,21.090058349609375,-0.7555050253868103,-1.7482867240905762,-0.5933828353881836
1712835308079059500,21.1100595703125,-1.2127294540405273,-1.563891887664795,-1.46480131149292
1712835308099059500,21.1300595703125,-1.268669843673706,-1.6120233535766602,-1.3875102996826172
1712835308119059500,21.1500595703125,-1.49431312084198,-1.463510513305664,-1.4799113273620605
1712835308139059500,21.1700595703125,-1.863813877105713,-0.95147705078125,-2.1332664489746094
1712835308159060000,21.19006005859375,-1.7194383144378662,-1.0472488403320312,-1.3934903144836426
1712835308179060000,21.21006005859375,-1.0372673273086548,-2.0426526069641113,-0.10868072509765625
1712835308199060000,21.23006005859375,-0.2700391411781311,-2.3653435707092285,0.32529258728027344
1712835308219060000,21.25006005859375,-0.7745470404624939,-0.7882351875305176,-0.47515153884887695
1712835308239060000,21.27006005859375,-2.2380778789520264,1.299560546875,0.1671757698059082
1712835308259060000,21.29006005859375,-2.1686816215515137,4.295027732849121,6.271637439727783
1712835308279060200,21.310060302734374,2.8371775150299072,4.060466766357422,10.756378173828125
1712835308299060200,21.330060302734374,2.7774739265441895,4.029886245727539,10.817893981933594
1712835308319060200,21.350060302734374,3.958540439605713,2.3321876525878906,11.54643726348877
1712835308339060200,21.370060302734377,0.5038779973983765,4.974976539611816,9.94025993347168
1712835308359060200,21.390060302734376,0.7695238590240479,4.738201141357422,4.3211669921875
1712835308379060000,21.41006005859375,0.13062810897827148,5.065855503082275,4.081260681152344
1712835308399060000,21.43006005859375,-4.588916778564453,6.106259822845459,-4.384574890136719
1712835308419060200,21.450060302734375,-3.2653369903564453,2.736295223236084,-5.3817620277404785
1712835308439060200,21.470060302734375,-3.8504457473754883,3.0975117683410645,-5.417996406555176
1712835308459060200,21.490060302734374,2.7342114448547363,2.8610105514526367,-0.5578470230102539
1712835308479060200,21.510060302734374,-3.7767269611358643,0.19092082977294922,-7.388556957244873
1712835308499060200,21.530060302734373,-4.175345420837402,0.3878912925720215,-7.189162254333496
1712835308519060000,21.55006005859375,-7.1911163330078125,1.9582643508911133,-9.986427307128906
1712835308539060000,21.57006005859375,-7.647497653961182,1.3276286125183105,-6.514469623565674
1712835308559060000,21.59006005859375,-5.04971981048584,-2.077794075012207,-2.7419259548187256
1712835308579060000,21.61006005859375,-3.9587221145629883,-3.4592723846435547,-1.4050755500793457
1712835308599060000,21.63006005859375,-4.933033466339111,-2.6178884506225586,-5.294222831726074
1712835308619060000,21.65006005859375,-3.9888710975646973,-0.6156830787658691,-5.906863212585449
1712835308639060000,21.67006005859375,-3.793468952178955,-0.7933807373046875,-5.933691024780273
1712835308659060000,21.69006005859375,-1.8315179347991943,1.1058897972106934,-5.347074508666992
1712835308679060000,21.71006005859375,-2.538459062576294,3.8223018646240234,-4.792436599731445
1712835308699060000,21.73006005859375,-1.7852113246917725,3.466555595397949,-4.974957466125488
1712835308719060000,21.75006005859375,-1.266115427017212,1.1627235412597656,-2.032257556915283
1712835308739060000,21.77006005859375,-4.75869607925415,1.8249387741088867,3.8866729736328125
1712835308759060000,21.79006005859375,-2.561279296875,2.7586631774902344,9.766929626464844
1712835308779060200,21.810060302734374,-2.132380485534668,2.542034149169922,9.953750610351562
1712835308799060200,21.830060302734374,-0.4329884648323059,0.8126754760742188,4.403863906860352
1712835308819060200,21.850060302734374,-0.36156994104385376,0.7055416107177734,4.555451393127441
1712835308839060200,21.870060302734377,0.6202322840690613,1.640702247619629,2.667574405670166
1712835308859060200,21.890060302734376,1.531412124633789,0.9230079650878906,5.01783561706543
1712835308879060000,21.91006005859375,1.5926513671875,0.9646425247192383,4.942688465118408
1712835308899060000,21.93006005859375,0.13891690969467163,0.6738033294677734,3.4823875427246094
1712835308919060200,21.950060302734375,-0.28719431161880493,0.23490333557128906,1.5633840560913086
1712835308939060200,21.970060302734375,-1.500351071357727,-0.4356989860534668,-0.42366743087768555
1712835308959060200,21.990060302734374,-3.2972488403320312,-0.9167771339416504,-2.2214298248291016
1712835308979060200,22.010060302734374,-3.7993617057800293,-1.6318225860595703,-3.4478466510772705
1712835308999060200,22.030060302734373,-3.8674631118774414,-1.5546226501464844,-3.531768560409546
1712835309019060000,22.05006005859375,-1.7940843105316162,-0.9245004653930664,-1.1828422546386719
1712835309039060000,22.07006005859375,-1.117546558380127,-1.128499984741211,0.33063697814941406
1712835309059060000,22.09006005859375,-0.9710962772369385,-1.1676297187805176,1.1317377090454102
1712835309079060000,22.11006005859375,-1.080808401107788,-0.9613537788391113,0.9353060722351074
1712835309099060000,22.13006005859375,-1.0706113576889038,-0.8383708000183105,-0.09959840774536133
1712835309119060000,22.15006005859375,-0.9279010891914368,-0.6515631675720215,-0.9755077362060547
1712835309139060000,22.17006005859375,-0.9451587796211243,-0.733309268951416,-0.8567018508911133
1712835309159060000,22.19006005859375,-1.1063885688781738,-1.1571588516235352,-1.7226026058197021
1712835309179060000,22.21006005859375,-1.6704034805297852,-1.5164146423339844,-1.8717517852783203
1712835309199060000,22.23006005859375,-2.1239640712738037,-1.3968205451965332,-1.0254278182983398
1712835309219060000,22.25006005859375,-1.389649510383606,-1.6129179000854492,-0.14550161361694336
1712835309239060000,22.27006005859375,-0.6756624579429626,-1.4774236679077148,-0.013696670532226562
1712835309259060000,22.29006005859375,-0.46966028213500977,-0.20497608184814453,-0.9978952407836914
1712835309279060200,22.310060302734374,-0.4875459372997284,1.5604791641235352,-1.4474754333496094
1712835309299060200,22.330060302734374,-0.3538948595523834,1.5148658752441406,-1.3807134628295898
1712835309319060200,22.350060302734374,-0.9770495891571045,4.219135284423828,3.086881160736084
1712835309339060200,22.370060302734377,-1.4710237979888916,3.640401840209961,8.334972381591797
1712835309359060200,22.390060302734376,0.08253240585327148,1.8891925811767578,11.190723419189453
1712835309379059700,22.410059814453124,1.4917821884155273,1.0513620376586914,9.05282211303711
1712835309399060000,22.43006005859375,0.6708265542984009,2.3754472732543945,2.4206771850585938
1712835309419060200,22.450060302734375,0.0676109790802002,2.5618515014648438,2.2986087799072266
1712835309439060200,22.470060302734375,0.37550806999206543,3.397122383117676,-0.8075709342956543
1712835309459060200,22.490060302734374,-4.4377641677856445,1.601776123046875,-3.919841766357422
1712835309479060200,22.510060302734374,-4.860183238983154,1.83137845993042,-3.996751308441162
1712835309499060200,22.530060302734373,6.600894927978516,2.113832950592041,0.5510139465332031
1712835309519059700,22.550059814453125,6.0031046867370605,2.397444725036621,0.6487522125244141
1712835309539059700,22.570059814453124,-5.67119836807251,0.30072689056396484,-6.196556568145752
1712835309559059700,22.590059814453124,-8.55859088897705,0.9787821769714355,-6.03100061416626
1712835309579059700,22.610059814453123,-6.0568132400512695,0.031141281127929688,-2.1975603103637695
1712835309599059700,22.630059814453126,-3.783740997314453,-0.9349884986877441,-0.4590473175048828
1712835309619059700,22.650059814453126,-3.762826442718506,-0.8836488723754883,-0.5385556221008301
1712835309639059700,22.670059814453126,-3.7065091133117676,-2.3696136474609375,-1.0148234367370605
1712835309659059700,22.690059814453125,-4.675696849822998,0.5081558227539062,-4.461101055145264
1712835309679059700,22.710059814453125,-3.391904354095459,0.1417226791381836,-6.1870317459106445
1712835309699059700,22.730059814453124,-3.0421690940856934,-0.05858612060546875,-6.255862236022949
1712835309719059700,22.750059814453124,-1.672828197479248,0.5122418403625488,-5.979702949523926
1712835309739059700,22.770059814453123,1.099738597869873,3.444913864135742,-4.375156402587891
1712835309759059700,22.790059814453127,-1.2389057874679565,-0.12174272537231445,1.7584033012390137
1712835309779060200,22.810060302734374,-0.39376163482666016,1.4761571884155273,10.715618133544922
1712835309799060200,22.830060302734374,0.11533141136169434,1.3314132690429688,10.775922775268555
1712835309819060200,22.850060302734374,-2.517620086669922,0.3463602066040039,2.8680262565612793
1712835309839060200,22.870060302734377,-2.1820363998413086,1.0876188278198242,-0.556215763092041
1712835309859060200,22.890060302734376,3.8737850189208984,0.49515533447265625,0.4806523323059082
1712835309879059700,22.910059814453124,5.24517297744751,0.3937358856201172,3.2717337608337402
1712835309899059700,22.930059814453124,5.308249473571777,0.43309783935546875,3.204751968383789
1712835309919060200,22.950060302734375,-0.5948433876037598,1.8452439308166504,1.656531810760498
1712835309939060200,22.970060302734375,-1.1494947671890259,0.7998061180114746,1.9265975952148438
1712835309959060200,22.990060302734374,-2.1447885036468506,-0.1279768943786621,0.8041105270385742
1712835309979060200,23.010060302734374,-3.3228325843811035,-0.9687156677246094,-0.8008480072021484
1712835309999060200,23.030060302734373,-3.9026715755462646,-1.4534053802490234,-1.7081398963928223
1712835310019059700,23.050059814453125,-3.073861598968506,-1.6235861778259277,-1.6471223831176758
1712835310039059700,23.070059814453124,-3.0620107650756836,-1.5460052490234375,-1.743821144104004
1712835310059059700,23.090059814453124,-1.6192994117736816,-2.1612772941589355,-0.36754846572875977
1712835310079059700,23.110059814453123,-1.497801423072815,-1.4088339805603027,-0.3485755920410156
1712835310099059700,23.130059814453126,-1.2962290048599243,-0.6663832664489746,-0.7847127914428711
1712835310119059700,23.150059814453126,-1.535111665725708,-0.659367561340332,-1.2204227447509766
1712835310139059700,23.170059814453126,-1.2847682237625122,-0.6656923294067383,-1.5408926010131836
1712835310159059700,23.190059814453125,-1.0821888446807861,-0.8184676170349121,-1.8828425407409668
1712835310179059700,23.210059814453125,-0.9897391200065613,-0.9023580551147461,-1.7992753982543945
1712835310199059700,23.230059814453124,-1.26387619972229,-1.877446174621582,-1.2085013389587402
1712835310219059700,23.250059814453124,-1.6366132497787476,-1.5932531356811523,-0.533470630645752
1712835310239059700,23.270059814453123,-1.4295070171356201,-1.717637062072754,-0.3945918083190918
1712835310259059700,23.290059814453127,-0.22590911388397217,-0.8454656600952148,1.3568954467773438
1712835310279060200,23.310060302734374,0.6833107471466064,0.2915925979614258,2.081491470336914
1712835310299060200,23.330060302734374,-0.2529635429382324,2.6600141525268555,3.326218605041504
1712835310319060200,23.350060302734374,-2.9819982051849365,4.885807991027832,6.43569803237915
1712835310339060200,23.370060302734377,-0.3457537591457367,3.2999839782714844,10.194698333740234
1712835310359060200,23.390060302734376,2.0920181274414062,0.0013952255249023438,8.208879470825195
1712835310379059700,23.410059814453124,1.1297757625579834,1.0877809524536133,6.552551746368408
1712835310399059700,23.430059814453124,0.4209820032119751,2.1997623443603516,6.072479724884033
1712835310419060200,23.450060302734375,-0.16697275638580322,2.360865592956543,5.971062183380127
1712835310439060200,23.470060302734375,-1.5751550197601318,3.455282688140869,-1.180079460144043
1712835310459060200,23.490060302734374,-4.552491188049316,2.2420034408569336,-6.297386169433594
1712835310479060200,23.510060302734374,6.775814056396484,4.969368934631348,-2.3521788120269775
1712835310499060200,23.530060302734373,5.834744453430176,2.322309970855713,-0.2376728057861328
1712835310519059700,23.550059814453125,-4.480777740478516,0.891573429107666,-6.053268909454346
1712835310539059700,23.570059814453124,-8.384832382202148,2.020400047302246,-11.167549133300781
1712835310559059700,23.590059814453124,-7.634552001953125,1.291839599609375,-6.988807678222656
1712835310579059700,23.610059814453123,-6.5177788734436035,-0.5798830986022949,1.2140936851501465
1712835310599059700,23.630059814453126,-4.051384449005127,-2.6905555725097656,4.351557731628418
1712835310619059700,23.650059814453126,-4.449370384216309,-2.6448721885681152,0.914797306060791
1712835310639059700,23.670059814453126,-6.231686115264893,-1.0196876525878906,-2.7237911224365234
1712835310659059700,23.690059814453125,-6.532448768615723,-0.4284629821777344,-4.484609603881836
1712835310679059700,23.710059814453125,-5.832253932952881,-0.5677886009216309,-4.596109390258789
1712835310699059700,23.730059814453124,-5.557554721832275,-0.7802057266235352,-4.604730129241943
1712835310719059700,23.750059814453124,-3.1248574256896973,-0.7972517013549805,-4.683197975158691
1712835310739059700,23.770059814453123,-1.3778002262115479,0.6385693550109863,-8.371440887451172
1712835310759059700,23.790059814453127,-0.657982349395752,0.34476184844970703,-8.469827651977539
1712835310779060200,23.810060302734374,6.331038475036621,9.700018882751465,-3.567514657974243
1712835310799060200,23.830060302734374,2.0370166301727295,1.5190362930297852,5.4243927001953125
1712835310819060200,23.850060302734374,3.037572145462036,1.2566194534301758,5.600864887237549
1712835310839060200,23.870060302734377,-8.110424041748047,7.070600509643555,22.848941802978516
1712835310859060200,23.890060302734376,-7.698864936828613,7.0852556228637695,22.847736358642578
1712835310879059700,23.910059814453124,3.948596715927124,-5.2595624923706055,4.882073879241943
1712835310899059700,23.930059814453124,-6.32537317276001,4.843907356262207,3.255417823791504
1712835310919060200,23.950060302734375,-4.277286052703857,4.090095520019531,-4.723806858062744
1712835310939060200,23.970060302734375,1.5543420314788818,-0.2941560745239258,-3.371490001678467
1712835310959060200,23.990060302734374,0.4521728754043579,0.45726776123046875,1.6317009925842285
1712835310979060200,24.010060302734374,0.6564748287200928,-0.9159731864929199,1.994234561920166
1712835310999060200,24.030060302734373,0.6092832088470459,-0.7858996391296387,1.7984919548034668
1712835311019059700,24.050059814453125,-1.6110023260116577,-1.2561688423156738,0.9097714424133301
1712835311039059700,24.070059814453124,-2.381598472595215,-1.617743968963623,0.6067228317260742
1712835311059059700,24.090059814453124,-2.1230125427246094,-1.8758931159973145,-0.41496992111206055
1712835311079059700,24.110059814453123,-2.221194267272949,-1.767838954925537,-0.5316586494445801
1712835311099059700,24.130059814453126,-0.4326610565185547,-1.841153621673584,-1.215683937072754
1712835311119059700,24.150059814453126,-0.1833817958831787,-1.618161678314209,-1.3952116966247559
1712835311139059700,24.170059814453126,-0.8137547969818115,-1.236968994140625,-1.672236442565918
1712835311159059700,24.190059814453125,-1.5965757369995117,-1.4164676666259766,-1.9422459602355957
1712835311179059700,24.210059814453125,-1.628535509109497,-1.8285541534423828,-2.312140464782715
1712835311199059700,24.230059814453124,-1.8215675354003906,-1.6769771575927734,-2.260596752166748
1712835311219059700,24.250059814453124,-1.573490858078003,-1.5093994140625,-1.579442024230957
1712835311239059700,24.270059814453123,-1.2586978673934937,-1.4553513526916504,-1.0504493713378906
1712835311259059700,24.290059814453127,-1.1647452116012573,-1.5302925109863281,-1.2083067893981934
1712835311279060200,24.310060302734374,-1.0845062732696533,-1.6619129180908203,-1.058547019958496
1712835311299060200,24.330060302734374,-1.5426840782165527,-1.684410572052002,-1.736595630645752
1712835311319060200,24.350060302734374,-1.3841538429260254,-1.212780475616455,-1.0134711265563965
1712835311339060200,24.370060302734377,-0.8035721778869629,0.014561653137207031,-1.2732734680175781
1712835311359060200,24.390060302734376,-2.218867301940918,1.2848663330078125,-0.8857402801513672
1712835311379059700,24.410059814453124,-4.810752868652344,4.6096296310424805,5.641690254211426
1712835311399059700,24.430059814453124,-4.623804569244385,4.541487693786621,5.729888916015625
1712835311419060200,24.450060302734375,-0.44098275899887085,4.414588928222656,13.124987602233887
1712835311439060200,24.470060302734375,4.824873924255371,2.281290054321289,13.742769241333008
1712835311459060200,24.490060302734374,2.1732091903686523,4.532733917236328,13.972146987915039
1712835311479060200,24.510060302734374,-0.7447162866592407,5.595847129821777,9.115608215332031
1712835311499060200,24.530060302734373,-4.305744647979736,3.6282577514648438,-2.2917184829711914
1712835311519059700,24.550059814453125,1.4753942489624023,5.38895845413208,-1.1330275535583496
1712835311539059700,24.570059814453124,10.713482856750488,3.4709653854370117,0.10418319702148438
1712835311559059700,24.590059814453124,-2.3127665519714355,0.7482461929321289,-5.593842029571533
1712835311579059700,24.610059814453123,-11.958414077758789,3.383059024810791,-12.844707489013672
1712835311599059700,24.630059814453126,-7.763476371765137,-0.5758762359619141,-11.499395370483398
1712835311619059700,24.650059814453126,-5.495244979858398,-1.6402316093444824,-2.3985447883605957
1712835311639059700,24.670059814453126,-4.446043491363525,-2.861711263656616,0.39165830612182617
1712835311659059700,24.690059814453125,-4.75335168838501,-3.6359634399414062,-3.074718952178955
1712835311679059700,24.710059814453125,-6.387820243835449,-2.5902912616729736,-5.191466808319092
1712835311699059700,24.730059814453124,-6.423930644989014,-2.1841697692871094,-6.667300701141357
1712835311719059700,24.750059814453124,-5.760566234588623,-1.4838018417358398,-6.130050182342529
1712835311739059700,24.770059814453123,-5.444995880126953,-1.6806225776672363,-6.236348628997803
1712835311759059700,24.790059814453127,-4.4369025230407715,-0.30203771591186523,-4.7768049240112305
1712835311779060200,24.810060302734374,-1.8012330532073975,0.3021388053894043,-4.454484939575195
1712835311799060200,24.830060302734374,-1.3128182888031006,1.33317232131958,-5.292178153991699
1712835311819060200,24.850060302734374,0.1779646873474121,4.868267059326172,-3.527374505996704
1712835311839060200,24.870060302734377,-0.9933173656463623,1.627638816833496,5.15696907043457
1712835311859060200,24.890060302734376,-0.1392676830291748,1.4226627349853516,5.178509712219238
1712835311879059700,24.910059814453124,-0.03695112466812134,2.735001564025879,13.928533554077148
1712835311899059700,24.930059814453124,-3.1760482788085938,3.6678428649902344,9.874391555786133
1712835311919060000,24.95006005859375,-3.189065456390381,3.6159725189208984,9.964088439941406
1712835311939060200,24.970060302734375,-1.8904846906661987,0.2512235641479492,2.8802056312561035
1712835311959060000,24.99006005859375,0.4508190155029297,-0.05556774139404297,0.5292873382568359
1712835311979060200,25.010060302734374,3.8332996368408203,-0.0844125747680664,0.7907199859619141
1712835311999060000,25.03006005859375,-0.09812021255493164,0.7972221374511719,1.6946611404418945
