time,seconds_elapsed,z,y,x
1712835287018120000,0.049119873046875,-0.01664607785642147,-0.05994115397334099,0.10346530377864838
1712835287040119800,0.071119873046875,-0.056352317333221436,-0.0697149932384491,0.0973566472530365
1712835287060128800,0.091128662109375,-0.0630718395113945,-0.08559749275445938,0.10285443812608719
1712835287080119800,0.111119873046875,-0.06918048858642578,-0.06604980677366257,0.11507174372673035
1712835287100119800,0.131119873046875,-0.09239336848258972,-0.01840231567621231,0.12362385541200638
1712835287120119800,0.151119873046875,-0.10522153973579407,-0.020845776423811913,0.11934779584407806
1712835287140119800,0.171119873046875,-0.10644327104091644,-0.1552361249923706,0.14500413835048676
1712835287160119800,0.191119873046875,-0.08078692853450775,-0.17172949016094208,0.1932624876499176
1712835287180119800,0.211119873046875,-0.10644327104091644,-0.1100321039557457,0.24274258315563202
1712835287200121300,0.231121337890625,-0.1742493063211441,-0.017180584371089935,0.30260735750198364
1712835287220121300,0.251121337890625,-0.3043636083602905,0.12331841886043549,0.30077478289604187
1712835287240121300,0.271121337890625,-0.38011088967323303,0.23510676622390747,0.3001639246940613
1712835287260121300,0.291121337890625,-0.005039638374000788,0.5069417953491211,0.3105486333370209
1712835287280121300,0.311121337890625,0.09575312584638596,0.8135961294174194,0.2995530366897583
1712835287300121300,0.331121337890625,-0.04535674303770065,0.9724211096763611,0.36247217655181885
1712835287320121300,0.351121337890625,-0.08200865983963013,0.91438889503479,0.35758525133132935
1712835287340121300,0.371121337890625,0.16111570596694946,0.8899543285369873,0.41317397356033325
1712835287360121300,0.391121337890625,0.35781431198120117,1.1703414916992188,0.5231297016143799
1712835287380121300,0.411121337890625,0.49586987495422363,1.3713160753250122,0.6691265106201172
1712835287400121300,0.431121337890625,0.6046038866043091,1.3957507610321045,0.810847282409668
1712835287420121300,0.451121337890625,0.7884743213653564,1.4122440814971924,0.9195812940597534
1712835287440121300,0.471121337890625,1.0041097402572632,1.5283085107803345,0.9837220907211304
1712835287460121300,0.491121337890625,1.2038626670837402,1.7256180047988892,1.074741005897522
1712835287480121300,0.511121337890625,1.3284791707992554,1.5777885913848877,1.1339949369430542
1712835287500121300,0.531121337890625,1.4451544284820557,1.5374714136123657,1.1022299528121948
1712835287520121300,0.551121337890625,1.4359915256500244,1.5576300621032715,1.1492666006088257
1712835287540121300,0.571121337890625,1.3382530212402344,1.4898239374160767,1.1688143014907837
1712835287560121600,0.59112158203125,1.35535728931427,1.143463373184204,1.1089495420455933
1712835287580121600,0.61112158203125,1.4647021293640137,0.867352306842804,1.036867380142212
1712835287600121600,0.63112158203125,1.4848606586456299,0.87651526927948,0.9409615397453308
1712835287620121600,0.65112158203125,1.3785701990127563,0.9974665641784668,0.848110020160675
1712835287640121600,0.67112158203125,1.2496775388717651,1.0805442333221436,0.7595345973968506
1712835287660121600,0.69112158203125,1.2399036884307861,1.0939832925796509,0.6709591150283813
1712835287680121600,0.71112158203125,1.2936599254608154,0.9253844618797302,0.600098729133606
1712835287700122000,0.7311220703125,1.3217597007751465,0.5887977480888367,0.5377904772758484
1712835287720060200,0.75106005859375,1.3113750219345093,0.3255148231983185,0.4504367709159851
1712835287740060200,0.77106005859375,1.2906055450439453,0.20456349849700928,0.3954588770866394
1712835287760060200,0.79106005859375,1.2563971281051636,0.10438159853219986,0.3643047511577606
1712835287780060200,0.81106005859375,1.335809588432312,0.043905939906835556,0.3337614834308624
1712835287800060000,0.831059814453125,1.409724235534668,-0.03061962127685547,0.2903900742530823
1712835287820060000,0.851059814453125,1.469589114189148,-0.06910412758588791,0.2592359483242035
1712835287840060000,0.871059814453125,1.3920091390609741,-0.10636691004037857,0.24213171005249023
1712835287860060000,0.891059814453125,1.2789990901947021,-0.25419628620147705,0.2244166135787964
1712835287880060000,0.911059814453125,1.1818715333938599,-0.4948772192001343,0.19631682336330414
1712835287900060000,0.931059814453125,1.0816895961761475,-0.739834189414978,0.17921258509159088
1712835287920060000,0.951059814453125,0.8910996913909912,-0.9676868915557861,0.15538884699344635
1712835287940060000,0.971059814453125,0.6577491760253906,-1.130787968635559,0.1278999149799347
1712835287960060000,0.991059814453125,0.4512766897678375,-1.279839038848877,0.10468703508377075
1712835287980060000,1.011059814453125,0.24358251690864563,-1.2572370767593384,0.06925684958696365
1712835288000060000,1.031059814453125,-0.06429356336593628,-1.176602840423584,0.010002918541431427
1712835288020060000,1.051059814453125,-0.3917173445224762,-1.091692566871643,-0.05719225853681564
1712835288040060000,1.071059814453125,-0.6531676650047302,-1.008004069328308,-0.11155926436185837
1712835288060060200,1.09106005859375,-0.794277548789978,-0.871781051158905,-0.14882203936576843
1712835288080060200,1.11106005859375,-0.804051399230957,-0.6017786264419556,-0.1408807933330536
1712835288100060200,1.13106005859375,-0.9305005073547363,-0.5694027543067932,-0.15737415850162506
1712835288120060200,1.15106005859375,-1.0184650421142578,-0.6439283490180969,-0.190360888838768
1712835288140060200,1.17106005859375,-0.9854783415794373,-0.4826599061489105,-0.2013564556837082
1712835288160060000,1.191059814453125,-0.9537133574485779,-0.2254856377840042,-0.2416735589504242
1712835288180060000,1.211059814453125,-0.9903652667999268,-0.037339139729738235,-0.2978731691837311
1712835288200060200,1.23106005859375,-0.9891435503959656,0.06895141303539276,-0.29481884837150574
1712835288220060200,1.25106005859375,-0.9017898440361023,0.3200170397758484,-0.3424663245677948
1712835288240060200,1.27106005859375,-0.7014260292053223,0.6590472459793091,-0.4420373737812042
1712835288260060200,1.29106005859375,-0.39477166533470154,1.0573313236236572,-0.4994587004184723
1712835288280060200,1.31106005859375,-0.19624045491218567,1.654146671295166,-0.43592870235443115
1712835288300060000,1.331059814453125,-0.3006984293460846,1.9858465194702148,-0.3363576829433441
1712835288320060000,1.351059814453125,-0.5028948187828064,1.8038086891174316,-0.21723894774913788
1712835288340060000,1.371059814453125,-0.3831652104854584,1.1165852546691895,-0.2410627007484436
1712835288360060000,1.391059814453125,0.08597928285598755,0.15997034311294556,-0.44631341099739075
1712835288380060000,1.411059814453125,0.3419318199157715,-0.20777054131031036,-0.3785073757171631
1712835288400060000,1.431059814453125,0.5942191481590271,-0.0031306843739002943,-0.140269935131073
1712835288420060000,1.451059814453125,0.9589056968688965,0.3401755690574646,-0.4285983145236969
1712835288440060000,1.471059814453125,1.1452195644378662,0.5857434272766113,-0.11766792088747025
1712835288460060000,1.491059814453125,1.2148582935333252,0.5161047577857971,0.1480584591627121
1712835288480060000,1.511059814453125,1.4787520170211792,0.10132727026939392,0.16516269743442535
1712835288500060000,1.531059814453125,1.6895005702972412,0.1532508134841919,0.20120373368263245
1712835288520060000,1.551059814453125,1.8183931112289429,0.6712645292282104,0.3044399619102478
1712835288540060000,1.571059814453125,2.0108156204223633,1.467221975326538,0.18409951031208038
1712835288560060200,1.59106005859375,1.9869918823242188,2.106187105178833,-0.04008803144097328
1712835288580060200,1.61106005859375,1.7896825075149536,2.4262804985046387,-0.15859588980674744
1712835288600060200,1.63106005859375,1.6638442277908325,2.625422477722168,-0.17875444889068604
1712835288620060200,1.65106005859375,1.5477797985076904,2.6107616424560547,-0.27343854308128357
1712835288640060200,1.67106005859375,1.3040446043014526,2.360306978225708,-0.3583488166332245
1712835288660060000,1.691059814453125,1.1714868545532227,1.8581757545471191,-0.3271946907043457
1712835288680060000,1.711059814453125,0.9118691086769104,1.8099173307418823,-0.44631341099739075
1712835288700060200,1.73106005859375,0.556345522403717,1.6187165975570679,-0.3528510332107544
1712835288720060200,1.75106005859375,0.26374107599258423,1.247921347618103,-0.21479548513889313
1712835288740060200,1.77106005859375,-0.06062837690114975,0.8722392320632935,-0.272827684879303
1712835288760060200,1.79106005859375,-0.5065600275993347,0.7189120650291443,-0.25022566318511963
1712835288780060200,1.81106005859375,-0.9640980958938599,0.7378488779067993,-0.059635721147060394
1712835288800060000,1.831059814453125,-1.279915452003479,0.7219663858413696,0.2244166135787964
1712835288820060000,1.851059814453125,-1.4094188213348389,0.7543421983718872,0.5005277395248413
1712835288840060000,1.871059814453125,-1.3874276876449585,0.4770093858242035,0.7839691638946533
1712835288860060000,1.891059814453125,-1.1827877759933472,0.14347697794437408,0.9183595180511475
1712835288880060000,1.911059814453125,-0.9867000579833984,-0.40630173683166504,1.1853076219558716
1712835288900060000,1.931059814453125,-0.8804095387458801,-1.089859962463379,1.4968489408493042
1712835288920060000,1.951059814453125,-0.9671524167060852,-1.7007251977920532,1.6678911447525024
1712835288940060000,1.971059814453125,-1.1901181936264038,-2.360459566116333,1.714316964149475
1712835288960060000,1.991059814453125,-1.6299412250518799,-2.8448758125305176,1.6159676313400269
1712835288980060000,2.011059814453125,-2.334268808364868,-3.6689329147338867,1.268996238708496
1712835289000060000,2.031059814453125,-2.9915597438812256,-4.188168525695801,0.7662540674209595
1712835289020060000,2.051059814453125,-2.8015806674957275,-4.141742706298828,0.025885414332151413
1712835289040060000,2.071059814453125,-1.9964603185653687,-3.6646568775177,-0.9246209263801575
1712835289060060200,2.09106005859375,-1.7331774234771729,-2.491184711456299,-0.9637162685394287
1712835289080060200,2.11106005859375,-1.1155925989151,-2.0287599563598633,-0.6808856725692749
1712835289100060200,2.13106005859375,0.4714352488517761,-3.2193362712860107,0.4015675485134125
1712835289120060200,2.15106005859375,1.180649757385254,-3.9578723907470703,1.0277043581008911
1712835289140060200,2.17106005859375,0.8868235945701599,-4.260250568389893,0.3148246705532074
1712835289160060000,2.191059814453125,1.098793864250183,-3.178408145904541,-0.4573090076446533
1712835289180060000,2.211059814453125,1.0438159704208374,-1.0782535076141357,-0.795728325843811
1712835289200060200,2.23106005859375,1.1537717580795288,1.3462706804275513,-0.9514989852905273
1712835289220060200,2.25106005859375,1.534340739250183,3.1715359687805176,-0.9759336113929749
1712835289240060200,2.27106005859375,1.7878499031066895,4.18984842300415,-0.9227883219718933
1712835289260060200,2.29106005859375,1.666898488998413,4.36699914932251,-0.9826530814170837
1712835289280060200,2.31106005859375,1.5056301355361938,3.3444108963012695,-1.1744648218154907
1712835289300060000,2.331059814453125,1.4659239053726196,1.668196678161621,-1.2416599988937378
1712835289320060000,2.351059814453125,1.5331190824508667,0.15691600739955902,-1.128039002418518
1712835289340060000,2.371059814453125,1.6473509073257446,-0.9340893030166626,-0.948444664478302
1712835289360060000,2.391059814453125,1.5783231258392334,-0.9041569232940674,-0.8452084064483643
1712835289380060000,2.411059814453125,1.478141188621521,-0.2676353454589844,-0.7755697965621948
1712835289400060000,2.431059814453125,1.4842498302459717,0.6431647539138794,-0.7981718182563782
1712835289420060000,2.451059814453125,1.5251778364181519,1.581453800201416,-0.8519279360771179
1712835289440060000,2.471059814453125,1.5373951196670532,2.2925009727478027,-0.8635343909263611
1712835289460060000,2.491059814453125,1.5099061727523804,2.542344808578491,-0.8122217059135437
1712835289480060000,2.511059814453125,1.4549282789230347,2.3835198879241943,-0.7260897159576416
1712835289500060000,2.531059814453125,1.3687963485717773,1.8319084644317627,-0.6411794424057007
1712835289520060000,2.551059814453125,1.269836187362671,1.0182360410690308,-0.5318345427513123
1712835289540060000,2.571059814453125,1.1665998697280884,0.25098925828933716,-0.3992767930030823
1712835289560060200,2.59106005859375,1.1598803997039795,-0.31406110525131226,-0.2862667143344879
1712835289580060200,2.61106005859375,1.1782063245773315,-0.49182286858558655,-0.16287194192409515
1712835289600060200,2.63106005859375,1.1488847732543945,-0.34032830595970154,-0.03275764733552933
1712835289620060200,2.65106005859375,1.1189523935317993,-0.06299547851085663,0.0668133869767189
1712835289640060200,2.67106005859375,1.096961259841919,0.04329507425427437,0.14622586965560913
1712835289660060000,2.691059814453125,1.0346530675888062,0.1275944709777832,0.2244166135787964
1712835289680060000,2.711059814453125,0.9399688839912415,-0.10025826096534729,0.2598468065261841
1712835289700060200,2.73106005859375,0.801913321018219,-0.5553528666496277,0.2903900742530823
1712835289720060200,2.75106005859375,0.7127270102500916,-0.9792933464050293,0.34353533387184143
1712835289740060200,2.77106005859375,0.660803496837616,-1.19370698928833,0.45288023352622986
1712835289760060200,2.79106005859375,0.6137668490409851,-1.2566261291503906,0.5402339696884155
1712835289780060200,2.81106005859375,0.4103487432003021,-1.2273045778274536,0.5646685361862183
1712835289800060000,2.831059814453125,-0.032528575509786606,-1.0495429039001465,0.5011385679244995
1712835289820060000,2.851059814453125,-0.17547103762626648,-0.994564950466156,0.3948480188846588
1712835289840060000,2.871059814453125,-0.17608191072940826,-0.8161923289299011,0.3862959146499634
1712835289860060000,2.891059814453125,-0.2194533348083496,-0.5058727860450745,0.5103015303611755
1712835289880060000,2.911059814453125,-0.31230485439300537,-0.3183371424674988,0.5671120285987854
1712835289900060000,2.931059814453125,-0.3452915847301483,-0.3317761719226837,0.554894745349884
1712835289920060000,2.951059814453125,-0.3068070709705353,-0.3623194396495819,0.6709591150283813
1712835289940060000,2.971059814453125,-0.3196352422237396,-0.2364812046289444,0.8902597427368164
1712835289960060000,2.991059814453125,-0.39477166533470154,0.07872525602579117,1.0423651933670044
1712835289980060000,3.011059814453125,-0.5383250117301941,0.5710826516151428,1.1914162635803223
1712835290000060000,3.031059814453125,-0.6647741198539734,1.0139600038528442,1.3630694150924683
1712835290020060000,3.051059814453125,-0.6928738951683044,1.3505467176437378,1.5793157815933228
1712835290040060000,3.071059814453125,-0.6256787180900574,1.5863406658172607,1.6892714500427246
1712835290060060200,3.09106005859375,-0.6244570016860962,1.5448018312454224,1.9183459281921387
1712835290080060200,3.11106005859375,-0.6177374720573425,1.123915672302246,2.078392744064331
1712835290100060200,3.13106005859375,-0.3617849349975586,0.6614906787872314,2.0160844326019287
1712835290120060200,3.15106005859375,-0.2616030275821686,0.5692500472068787,1.9983693361282349
1712835290140060200,3.17106005859375,-0.1595885455608368,0.772057294845581,2.103438138961792
1712835290160060000,3.191059814453125,0.046273041516542435,1.2405909299850464,1.9458348751068115
1712835290180060000,3.211059814453125,0.547182559967041,1.8991036415100098,1.275715708732605
1712835290200060200,3.23106005859375,1.0566442012786865,3.876474380493164,0.6562983393669128
1712835290220060200,3.25106005859375,1.478141188621521,5.525199890136719,0.21769709885120392
1712835290240060200,3.27106005859375,1.5709927082061768,5.812917232513428,-0.17875444889068604
1712835290260060200,3.29106005859375,1.3877331018447876,5.237482070922852,-0.6607271432876587
1712835290280060200,3.31106005859375,1.109789490699768,4.250324249267578,-0.957607626914978
1712835290300060000,3.331059814453125,1.2148582935333252,3.7995054721832275,-0.5458844304084778
1712835290320059600,3.3510595703125,0.556345522403717,5.178839206695557,-1.2190579175949097
1712835290340059600,3.3710595703125,-1.1925616264343262,5.956470489501953,-0.5819255113601685
1712835290360059600,3.3910595703125,-1.278693675994873,3.0927343368530273,-0.5220606923103333
1712835290380059600,3.4110595703125,-0.6055201888084412,0.013973542489111423,-0.7749589085578918
1712835290400059600,3.4310595703125,-1.0209085941314697,-1.2578479051589966,-0.37972912192344666
1712835290420059600,3.4510595703125,-1.0178542137145996,-1.1546117067337036,-0.1506546437740326
1712835290440059600,3.4710595703125,-0.8755226135253906,-0.40446916222572327,-0.06269004940986633
1712835290460059600,3.4910595703125,-0.7234171628952026,0.40798163414001465,-0.051083605736494064
1712835290480059600,3.5110595703125,-0.764955997467041,1.1562916040420532,0.334983229637146
1712835290500059600,3.5310595703125,-1.107040524482727,1.2851841449737549,0.23724478483200073
1712835290520059600,3.5510595703125,-1.761277198791504,1.4959325790405273,-0.06330090761184692
1712835290540059600,3.5710595703125,-2.6781859397888184,0.8704066276550293,-0.4127158224582672
1712835290560060000,3.591059814453125,-3.5162930488586426,0.2754238545894623,-0.747469961643219
1712835290580060000,3.611059814453125,-4.011704921722412,-0.5645158290863037,-0.815886914730072
1712835290600060000,3.631059814453125,-4.405101776123047,-1.5107461214065552,-1.1176543235778809
1712835290620060000,3.651059814453125,-4.678769588470459,-1.8125135898590088,-1.595350980758667
1712835290640060000,3.671059814453125,-4.615850448608398,-2.028148889541626,-1.7834974527359009
1712835290660059600,3.6910595703125,-4.027587413787842,-2.2841014862060547,-1.7413477897644043
1712835290680059600,3.7110595703125,-3.235905885696411,-1.899867296218872,-1.1549171209335327
1712835290700060000,3.731059814453125,-2.7826437950134277,-1.7172185182571411,-0.6607271432876587
1712835290720060000,3.751059814453125,-2.8480064868927,-1.42400324344635,-0.5831472277641296
1712835290740060000,3.771059814453125,-2.9964468479156494,-0.5663484334945679,0.00022907447419129312
1712835290760060000,3.791059814453125,-2.951242685317993,-0.8998808860778809,0.5707772374153137
1712835290780060000,3.811059814453125,-3.1693215370178223,-1.433777093887329,1.514564037322998
1712835290800059600,3.8310595703125,-0.41920626163482666,-6.023818492889404,2.251878261566162
1712835290820059600,3.8510595703125,1.3119858503341675,-11.007257461547852,-1.8598556518554688
1712835290840059600,3.8710595703125,-0.926835298538208,5.328501224517822,0.19448421895503998
1712835290860059600,3.8910595703125,2.7401888370513916,2.9485702514648438,2.832811117172241
1712835290880059600,3.9110595703125,2.6277894973754883,0.8001571297645569,0.8230645656585693
1712835290900059600,3.9310595703125,-0.07467827945947647,0.48311805725097656,-0.42554399371147156
1712835290920060000,3.951059814453125,0.2588541507720947,1.8710038661956787,-0.6094144582748413
1712835290940060000,3.971059814453125,0.2246456891298294,2.6413049697875977,-0.4780784249305725
1712835290960060000,3.991059814453125,-0.14737124741077423,3.1825315952301025,-0.41638103127479553
1712835290980060000,4.011059814453125,-0.9408851861953735,2.9668960571289062,-0.015653422102332115
1712835291000060000,4.031059814453125,-1.4833335876464844,1.2601386308670044,-0.1146135926246643
1712835291020060000,4.051059814453125,-1.751503348350525,-0.7899250984191895,-0.3766747713088989
1712835291040060000,4.071059814453125,-2.0117318630218506,-1.8534414768218994,-0.382172554731369
1712835291060060200,4.09106005859375,-1.4399621486663818,-1.6463582515716553,-0.606360137462616
1712835291080060200,4.11106005859375,0.5917757153511047,-0.6854671835899353,-0.10361801832914352
1712835291100060200,4.13106005859375,2.026698112487793,-0.5663484334945679,0.8090146780014038
1712835291120060200,4.15106005859375,3.0437889099121094,-0.06604980677366257,1.6642260551452637
1712835291140060200,4.17106005859375,3.509268045425415,-0.3317761719226837,2.0429625511169434
1712835291160060000,4.191059814453125,3.380986452102661,-0.7459428310394287,1.8328248262405396
1712835291180060000,4.211059814453125,3.4316883087158203,-0.2560288906097412,1.5151748657226562
1712835291200060200,4.23106005859375,3.4628424644470215,1.418352723121643,1.4229341745376587
1712835291220060200,4.25106005859375,3.7505598068237305,2.475149631500244,0.6324746012687683
1712835291240060200,4.27106005859375,4.6815185546875,1.9785162210464478,0.10163270682096481
1712835291260060200,4.29106005859375,4.815908908843994,2.4427738189697266,0.11995866149663925
1712835291280060200,4.31106005859375,4.377918720245361,4.221002578735352,-0.5709299445152283
1712835291300060000,4.331059814453125,4.247193336486816,5.479384899139404,-0.996703028678894
1712835291320060000,4.351059814453125,4.021173000335693,4.737183570861816,-0.947833776473999
1712835291340060000,4.371059814453125,3.8000400066375732,2.6235897541046143,-1.053513526916504
1712835291360060000,4.391059814453125,3.2026138305664062,1.3456597328186035,-1.30091392993927
1712835291380060000,4.411059814453125,2.278374671936035,0.34689509868621826,-1.610622525215149
1712835291400060000,4.431059814453125,1.6381878852844238,-0.08071056753396988,-1.7187457084655762
1712835291420060000,4.451059814453125,1.2301298379898071,0.08483391255140305,-1.4560736417770386
1712835291440060000,4.471059814453125,1.0493137836456299,0.15019649267196655,-1.0755046606063843
1712835291460060000,4.491059814453125,0.9363036751747131,-0.7679339647293091,-0.7926740050315857
1712835291480060000,4.511059814453125,1.1928671598434448,-1.8833738565444946,-0.5031238794326782
1712835291500060000,4.531059814453125,1.3920091390609741,-2.2242367267608643,-0.41027235984802246
1712835291520060000,4.551059814453125,1.4188872575759888,-2.617633819580078,-0.09689849615097046
1712835291540060000,4.571059814453125,1.2692252397537231,-2.35190749168396,0.4107305109500885
1712835291560060200,4.59106005859375,1.0096075534820557,-1.5834391117095947,0.39851322770118713
1712835291580060200,4.61106005859375,0.782976508140564,-0.8504008054733276,0.46815183758735657
1712835291600060200,4.63106005859375,0.5386304259300232,-0.5089271068572998,0.8737663626670837
1712835291620060200,4.65106005859375,0.2649627923965454,-1.0208321809768677,1.3074806928634644
1712835291640060200,4.67106005859375,-0.13820825517177582,-2.441704750061035,1.647121787071228
1712835291660060000,4.691059814453125,-0.6678284406661987,-4.450840473175049,1.8554267883300781
1712835291680060000,4.711059814453125,-1.7979291677474976,-6.7226481437683105,1.8169423341751099
1712835291700060200,4.73106005859375,-2.7985262870788574,-7.948655128479004,1.1284971237182617
1712835291720060200,4.75106005859375,-2.6610817909240723,-8.379925727844238,0.396680623292923
1712835291740060200,4.77106005859375,-1.819920301437378,-6.400722503662109,0.16149750351905823
1712835291760060200,4.79106005859375,-1.2041680812835693,-3.6573266983032227,-0.1549306958913803
1712835291780060200,4.81106005859375,-0.622013509273529,-2.172924041748047,-0.6277403831481934
1712835291800060000,4.831059814453125,-0.11010845750570297,-1.650023341178894,-0.9307295680046082
1712835291820060000,4.851059814453125,0.3010038435459137,-1.7025578022003174,-1.0107529163360596
1712835291840060000,4.871059814453125,0.5948300361633301,-1.6280322074890137,-1.147586703300476
1712835291860060000,4.891059814453125,0.8984300494194031,-0.9267589449882507,-1.3332897424697876
1712835291880060000,4.911059814453125,1.1018482446670532,0.1227075532078743,-1.3577243089675903
1712835291900060000,4.931059814453125,1.0847439765930176,1.0072404146194458,-1.3699417114257812
1712835291920060000,4.951059814453125,0.9552405476570129,1.170952320098877,-1.346728801727295
1712835291940060000,4.971059814453125,0.8642216324806213,0.5454263091087341,-1.2886966466903687
1712835291960060000,4.991059814453125,0.8446739315986633,-0.022067507728934288,-1.2037863731384277
1712835291980060000,5.011059814453125,0.7780895829200745,-0.3262783885002136,-1.0687850713729858
1712835292000060000,5.031059814453125,0.5917757153511047,-0.701349675655365,-0.8452084064483643
1712835292020060000,5.051059814453125,0.2588541507720947,-1.0648144483566284,-0.5513822436332703
1712835292040060000,5.071059814453125,-0.2848159074783325,-1.3171018362045288,-0.3174208402633667
1712835292060060200,5.09106005859375,-0.7423539757728577,-1.4661529064178467,-0.24533875286579132
1712835292080060200,5.11106005859375,-0.9445503950119019,-1.1796571016311646,-0.2563343346118927
1712835292100060200,5.13106005859375,-0.9976956844329834,-0.37087157368659973,-0.26488643884658813
1712835292120060200,5.15106005859375,-0.9598219990730286,0.6572146415710449,-0.292375385761261
1712835292140060200,5.17106005859375,-0.7380779385566711,1.2778537273406982,-0.21723894774913788
1712835292160060000,5.191059814453125,-0.7014260292053223,1.0695487260818481,-0.1347721517086029
1712835292180060000,5.211059814453125,-0.6574437022209167,0.5179373621940613,-0.2312888503074646
1712835292200060200,5.23106005859375,-0.43875396251678467,0.2283872365951538,-0.31864258646965027
1712835292220060200,5.25106005859375,-0.044135015457868576,0.26015225052833557,-0.3589596748352051
1712835292240060200,5.27106005859375,0.31322115659713745,0.3694971203804016,-0.4224896728992462
1712835292260060200,5.29106005859375,0.5074763298034668,0.42875105142593384,-0.49579349160194397
1712835292280060200,5.31106005859375,0.5392413139343262,0.47395506501197815,-0.5782603025436401
1712835292300060000,5.331059814453125,0.5135849714279175,0.5448154211044312,-0.6161339282989502
1712835292320060000,5.351059814453125,0.4280638098716736,0.3902665376663208,-0.6515641212463379
1712835292340060000,5.371059814453125,0.32788193225860596,0.058566704392433167,-0.6546184420585632
1712835292360060000,5.391059814453125,0.1898263692855835,-0.2914590835571289,-0.606360137462616
1712835292380060000,5.411059814453125,0.005345070734620094,-0.43562328815460205,-0.5122868418693542
1712835292400060000,5.431059814453125,-0.15714508295059204,-0.46616652607917786,-0.3461315333843231
1712835292420060200,5.45106005859375,-0.24572055041790009,-0.4826599061489105,-0.2007455974817276
1712835292440060200,5.47106005859375,-0.25671613216400146,-0.6469826698303223,-0.09750936180353165
1712835292460060200,5.49106005859375,-0.3923282027244568,-0.8418486714363098,0.08025242388248444
1712835292480060200,5.51106005859375,-0.5126686692237854,-0.8174140453338623,0.10102184116840363
1712835292500060200,5.53106005859375,-0.17302757501602173,-0.5987243056297302,-0.07735081017017365
1712835292520060200,5.55106005859375,0.3425426781177521,-0.19860756397247314,-0.010155634954571724
1712835292540060200,5.57106005859375,0.6516404747962952,0.2082286924123764,0.21708624064922333
1712835292560060400,5.591060302734375,0.7066183686256409,0.26748260855674744,0.3343723714351654
1712835292580060400,5.611060302734375,0.5789475440979004,0.03779728710651398,0.3404810130596161
1712835292600060400,5.631060302734375,0.4928155243396759,-0.1857793927192688,0.31299206614494324
1712835292620060400,5.651060302734375,0.4433354437351227,-0.10209085047245026,0.38873937726020813
1712835292640060400,5.671060302734375,0.44516804814338684,0.1929570585489273,0.43211081624031067
1712835292660060200,5.69106005859375,0.4060726761817932,0.3847687542438507,0.49441906809806824
1712835292680060200,5.71106005859375,0.22708915174007416,0.3084105849266052,0.6227007508277893
1712835292700060400,5.731060302734375,-0.03985895588994026,0.08361218124628067,0.7491498589515686
1712835292720060400,5.751060302734375,-0.32818734645843506,-0.04466952010989189,0.8340601325035095
1712835292740060400,5.771060302734375,-0.6623306274414062,-0.02756529487669468,1.027093529701233
1712835292760060400,5.791060302734375,-1.052673578262329,0.09888381510972977,1.1590404510498047
1712835292780060400,5.811060302734375,-1.2469286918640137,0.2943606972694397,1.1889728307724
1712835292800060200,5.83106005859375,-1.3984233140945435,0.5313764214515686,1.2286790609359741
1712835292820060200,5.85106005859375,-1.6354389190673828,0.772668182849884,1.398499608039856
1712835292840060200,5.87106005859375,-1.6299412250518799,0.9266062378883362,1.4510340690612793
1712835292860060200,5.89106005859375,-1.4130840301513672,0.7665595412254333,1.5561028718948364
1712835292880060200,5.91106005859375,-1.143081545829773,0.6498842835426331,1.482188105583191
1712835292900060200,5.93106005859375,-0.33857205510139465,1.2699124813079834,1.1260536909103394
1712835292920060200,5.95106005859375,0.5923865437507629,3.177644729614258,0.677678644657135
1712835292940060200,5.97106005859375,1.3828462362289429,5.040172576904297,0.20547980070114136
1712835292960060200,5.99106005859375,1.8440494537353516,4.8239264488220215,0.022831087931990623
1712835292980060200,6.01106005859375,2.065182685852051,4.1935133934021,-0.26366472244262695
1712835293000060200,6.03106005859375,2.246609687805176,3.7707948684692383,-0.4176027476787567
1712835293020060000,6.051059814453125,2.28937029838562,3.451923131942749,-0.21723894774913788
1712835293040060000,6.071059814453125,2.066404342651367,5.248477935791016,-0.6698901057243347
1712835293060060200,6.09106005859375,1.079246163368225,6.160499572753906,-1.30091392993927
1712835293080060200,6.11106005859375,0.5148066878318787,4.943655967712402,-0.7254788279533386
1712835293100060200,6.13106005859375,0.6998988389968872,1.0939832925796509,-1.0877219438552856
1712835293120060200,6.15106005859375,0.44944411516189575,-0.39408445358276367,-1.1060478687286377
1712835293140060200,6.17106005859375,0.5520694851875305,-0.20838139951229095,-0.643622875213623
1712835293160060000,6.191059814453125,0.5141957998275757,1.0243446826934814,0.01794416643679142
1712835293180060000,6.211059814453125,0.4207334518432617,1.285794973373413,0.1981494128704071
1712835293200060200,6.23106005859375,0.37430769205093384,0.49900054931640625,0.3844633102416992
1712835293220060200,6.25106005859375,0.2808452844619751,-0.46555566787719727,0.5078580975532532
1712835293240060200,6.27106005859375,0.13729196786880493,-1.108185887336731,0.46876272559165955
1712835293260060200,6.29106005859375,-0.014202617108821869,-1.2865585088729858,0.5316818356513977
1712835293280060200,6.31106005859375,-0.1235474944114685,-1.4490487575531006,0.7595345973968506
1712835293300060000,6.331059814453125,-0.3397938013076782,-2.0929007530212402,1.0295369625091553
1712835293320060000,6.351059814453125,-0.7338019013404846,-3.1875712871551514,0.9873872995376587
1712835293340060000,6.371059814453125,-1.3807082176208496,-3.9755873680114746,1.220126986503601
1712835293360060000,6.391059814453125,-2.2982277870178223,-5.151503086090088,1.1645382642745972
1712835293380060000,6.411059814453125,-3.0801353454589844,-6.083683490753174,0.22075143456459045
1712835293400060000,6.431059814453125,-3.129615306854248,-5.6194257736206055,0.2702315151691437
1712835293420060000,6.451059814453125,-1.5694655179977417,-5.6334757804870605,0.19631682336330414
1712835293440060000,6.471059814453125,-0.42409318685531616,-4.316450119018555,-0.46158504486083984
1712835293460060000,6.491059814453125,0.1898263692855835,-1.148503065109253,-0.6460663676261902
1712835293480060000,6.511059814453125,0.5905539989471436,0.7488444447517395,-0.4432590901851654
1712835293500060000,6.531059814453125,0.7695375084877014,0.867352306842804,-0.4988478422164917
1712835293520060000,6.551059814453125,0.9442449808120728,0.4220315217971802,-0.6845508813858032
1712835293540060000,6.571059814453125,0.8978192210197449,0.29191723465919495,-0.8647561073303223
1712835293560060200,6.59106005859375,0.8593347072601318,0.6541603207588196,-0.9350056052207947
1712835293580060200,6.61106005859375,0.8972083330154419,0.743346631526947,-0.9741010069847107
1712835293600060200,6.63106005859375,0.8666650652885437,0.5350415706634521,-0.8836929202079773
1712835293620060200,6.65106005859375,0.5984952449798584,0.012751812115311623,-0.595975399017334
1712835293640060200,6.67106005859375,0.3321579694747925,-0.6927975416183472,-0.38522690534591675
1712835293660060000,6.691059814453125,0.08292495459318161,-1.3604732751846313,-0.27466028928756714
1712835293680060000,6.711059814453125,-0.3465133011341095,-1.573054313659668,-0.11400272697210312
1712835293700060200,6.73106005859375,-0.8413141369819641,-1.2193633317947388,0.0264962799847126
1712835293720060200,6.75106005859375,-1.1565206050872803,-0.6347653269767761,0.06314819306135178
1712835293740060200,6.77106005859375,-1.240820050239563,-0.06299547851085663,0.00939205288887024
1712835293760060200,6.79106005859375,-1.2622003555297852,0.44890961050987244,-0.039477165788412094
1712835293780060200,6.81106005859375,-1.3410019874572754,0.7091382145881653,-0.0339793786406517
1712835293800060000,6.831059814453125,-1.4833335876464844,0.877126157283783,0.22258402407169342
1712835293820060000,6.851059814453125,-1.3825408220291138,0.8416959643363953,0.4406629204750061
1712835293840060000,6.871059814453125,-1.1699596643447876,0.524046003818512,0.6031530499458313
1712835293860060000,6.891059814453125,-1.2328788042068481,0.24182628095149994,0.8474991917610168
1712835293880060000,6.911059814453125,-1.3293955326080322,0.27725645899772644,1.0332021713256836
1712835293900060000,6.931059814453125,-1.147357702255249,0.6083454489707947,1.0344239473342896
1712835293920060000,6.951059814453125,-1.1094839572906494,1.1312460899353027,1.1755337715148926
1712835293940060000,6.971059814453125,-0.9005680680274963,2.119626045227051,1.0924561023712158
1712835293960060000,6.991059814453125,-0.17302757501602173,2.907642126083374,0.7693084478378296
1712835293980060000,7.011059814453125,1.028544306755066,4.496502876281738,0.1419498175382614
1712835294000060000,7.031059814453125,1.7982345819473267,5.877058029174805,-0.4945717751979828
1712835294020060000,7.051059814453125,2.096336841583252,4.774446487426758,-1.3058007955551147
1712835294040060000,7.071059814453125,1.9912680387496948,3.7665188312530518,-1.7089718580245972
1712835294060060200,7.09106005859375,1.7261524200439453,2.53012752532959,-2.363208532333374
1712835294080060200,7.11106005859375,2.062739133834839,2.4116196632385254,-2.611830711364746
1712835294100060200,7.13106005859375,1.4689781665802002,1.7708219289779663,-1.3907110691070557
1712835294120060200,7.15106005859375,1.1213958263397217,0.3291800022125244,-1.3791046142578125
1712835294140060200,7.17106005859375,1.2075278759002686,0.7085273265838623,-1.4377477169036865
1712835294160060000,7.191059814453125,1.1470521688461304,1.506317377090454,-0.890412449836731
1712835294180060000,7.211059814453125,0.973566472530365,1.6523141860961914,-0.4988478422164917
1712835294200060200,7.23106005859375,0.7506006956100464,1.097037672996521,-0.2514474093914032
1712835294220060200,7.25106005859375,0.6418666839599609,0.27236953377723694,-0.06818783283233643
1712835294240060200,7.27106005859375,0.4579962193965912,-0.10758864134550095,0.29710957407951355
1712835294260060200,7.29106005859375,0.07925976812839508,-0.25786149501800537,0.7448738217353821
1712835294280060200,7.31106005859375,-0.2866485118865967,-0.6598108410835266,1.3019828796386719
1712835294300060000,7.331059814453125,-0.6250678896903992,-1.5687782764434814,1.6874388456344604
1712835294320060000,7.351059814453125,-1.1155925989151,-2.564488649368286,2.081446886062622
1712835294340060000,7.371059814453125,-1.7032450437545776,-3.632891893386841,2.1437551975250244
1712835294360060000,7.391059814453125,-2.3849706649780273,-4.988401889801025,1.303815484046936
1712835294380060000,7.411059814453125,-3.18581485748291,-6.226625919342041,0.4901430010795593
1712835294400060000,7.431059814453125,-3.1644346714019775,-6.510067462921143,0.9256899356842041
1712835294420060000,7.451059814453125,-1.771051049232483,-6.794119834899902,0.5506186485290527
1712835294440060000,7.471059814453125,-1.0832167863845825,-5.026886463165283,-0.3375793993473053
1712835294460060000,7.491059814453125,-0.6837109327316284,-1.5932129621505737,-0.6234643459320068
1712835294480060000,7.511059814453125,-0.13515393435955048,1.000520944595337,-0.41638103127479553
1712835294500060000,7.531059814453125,0.07437284290790558,0.20945042371749878,-0.2856558561325073
1712835294520060000,7.551059814453125,0.29794952273368835,-0.9078221321105957,-0.6307947039604187
1712835294540060000,7.571059814453125,0.3969096839427948,-0.730060338973999,-0.8336020112037659
1712835294560060200,7.59106005859375,0.6467535495758057,-0.06604980677366257,-0.9240100383758545
1712835294580060200,7.61106005859375,0.8287914395332336,0.2528218626976013,-0.9594402313232422
1712835294600060200,7.63106005859375,0.8593347072601318,0.31085404753685,-1.015028953552246
1712835294620060200,7.65106005859375,0.8355109095573425,0.21678079664707184,-0.9637162685394287
1712835294640060200,7.67106005859375,0.6363688707351685,-0.03367394581437111,-0.7004333734512329
1712835294660060000,7.691059814453125,0.3358231782913208,-0.5455790162086487,-0.4371504485607147
1712835294680060000,7.711059814453125,0.11041389405727386,-1.1020772457122803,-0.2618321180343628
1712835294700060200,7.73106005859375,-0.09605856239795685,-1.25051748752594,-0.10667234659194946
1712835294720060200,7.75106005859375,-0.3868304193019867,-0.8925504684448242,0.1126282811164856
1712835294740060200,7.77106005859375,-0.6207917928695679,-0.38736492395401,0.30627256631851196
1712835294760060200,7.79106005859375,-0.6934847831726074,0.10926852375268936,0.4211152195930481
1712835294780060200,7.81106005859375,-0.6959282159805298,0.42936190962791443,0.4809800088405609
1712835294800060000,7.831059814453125,-0.6928738951683044,0.6144540905952454,0.5212971568107605
1712835294820060000,7.851059814453125,-0.7637342810630798,0.7653377652168274,0.6611852645874023
1712835294840060000,7.871059814453125,-0.8211556077003479,0.8600218892097473,0.8114581108093262
1712835294860060000,7.891059814453125,-0.7191411256790161,0.8276460766792297,0.8945357799530029
1712835294880060000,7.911059814453125,-0.707534670829773,0.7470118403434753,1.055193305015564
1712835294900060000,7.931059814453125,-0.7148650288581848,0.7262424230575562,1.0686323642730713
1712835294920060000,7.951059814453125,-0.30253100395202637,0.6621015667915344,0.9867764711380005
1712835294940060000,7.971059814453125,0.1293507218360901,0.8820130825042725,0.7436521053314209
1712835294960060000,7.991059814453125,0.3407101035118103,1.9937877655029297,0.44432809948921204
1712835294980060000,8.011059814453125,0.9980010986328125,4.874017238616943,0.23663392663002014
1712835295000060000,8.031059814453124,1.4689781665802002,6.109187126159668,-0.130496084690094
1712835295020060000,8.051059814453126,1.6723963022232056,5.89110803604126,-0.7431939244270325
1712835295040060000,8.071059814453125,1.7023286819458008,3.6547303199768066,-1.2941943407058716
1712835295060060200,8.09106005859375,1.7737998962402344,1.88322114944458,-1.4023175239562988
1712835295080060200,8.11106005859375,1.4133894443511963,2.186821222305298,-1.497612476348877
1712835295100060200,8.13106005859375,0.7854200005531311,3.030426025390625,-1.7010306119918823
1712835295120060200,8.15106005859375,0.49464812874794006,3.2155182361602783,-2.1048126220703125
1712835295140060200,8.17106005859375,0.21365012228488922,3.04447603225708,-1.4921146631240845
1712835295160060000,8.191059814453125,-0.2444988191127777,1.5729016065597534,-1.193401575088501
1712835295180060000,8.211059814453124,-0.22861631214618683,-0.33544138073921204,-1.2960269451141357
1712835295200060200,8.23106005859375,-0.08078692853450775,-1.0556515455245972,-0.7419722080230713
1712835295220060200,8.25106005859375,-0.15714508295059204,-1.158276915550232,-0.12255483865737915
1712835295240060200,8.27106005859375,-0.08994990587234497,-1.1204031705856323,0.2726749777793884
1712835295260060200,8.29106005859375,-0.1638645976781845,-0.9841802716255188,0.7088327407836914
1712835295280060200,8.31106005859375,-0.3214678466320038,-1.0452667474746704,1.105284333229065
1712835295300060000,8.331059814453125,-0.45952337980270386,-1.5223525762557983,1.3966670036315918
1712835295320060000,8.351059814453125,-0.7160868048667908,-2.42765474319458,1.656895637512207
1712835295340060000,8.371059814453124,-1.2383766174316406,-3.4930038452148438,1.8902461528778076
1712835295360060000,8.391059814453126,-1.8241963386535645,-5.073923110961914,1.2964850664138794
1712835295380060000,8.411059814453125,-2.182774305343628,-6.836880207061768,0.6831763982772827
1712835295400060000,8.431059814453125,-1.8724546432495117,-7.536320686340332,0.9043096303939819
1712835295420060000,8.451059814453124,-1.123533844947815,-6.249838829040527,0.3557526469230652
1712835295440060000,8.471059814453126,-0.5816964507102966,-2.762408971786499,0.03627012297511101
1712835295460060000,8.491059814453125,-0.20723603665828705,-0.5461899042129517,-0.23495404422283173
1712835295480060000,8.511059814453125,0.235030397772789,0.2436588704586029,-0.1659262776374817
1712835295500060000,8.531059814453124,0.5453499555587769,-0.38064539432525635,-0.3766747713088989
1712835295520060000,8.551059814453126,0.698066234588623,-0.7520514726638794,-0.6876052021980286
1712835295540060000,8.571059814453125,0.8776606321334839,-0.30917418003082275,-0.8537605404853821
1712835295560060200,8.59106005859375,0.9686795473098755,0.29619327187538147,-0.8274933099746704
1712835295580060200,8.61106005859375,0.9289733171463013,0.8716283440589905,-0.9356164932250977
1712835295600060200,8.63106005859375,0.8886561989784241,1.1300243139266968,-1.0186941623687744
1712835295620060200,8.65106005859375,0.6803511381149292,0.9638689756393433,-0.7890087962150574
1712835295640060200,8.67106005859375,0.28267788887023926,0.27664560079574585,-0.42554399371147156
1712835295660060000,8.691059814453125,-0.0007635815418325365,-0.6109415888786316,-0.1451568603515625
1712835295680060000,8.711059814453124,-0.17241671681404114,-1.2462414503097534,0.02710714563727379
1712835295700060200,8.73106005859375,-0.4063780903816223,-1.1588877439498901,0.21036672592163086
1712835295720060200,8.75106005859375,-0.6659958362579346,-0.4130212664604187,0.36186128854751587
1712835295740060200,8.77106005859375,-0.8284859657287598,0.44280093908309937,0.4510476291179657
1712835295760060200,8.79106005859375,-1.0025825500488281,1.0060187578201294,0.5304601192474365
1712835295780060200,8.81106005859375,-1.1748465299606323,1.2442561388015747,0.6068182587623596
1712835295800060000,8.831059814453125,-1.3129020929336548,1.1996629238128662,0.7088327407836914
1712835295820060000,8.851059814453125,-1.2255483865737915,0.743346631526947,0.7002806663513184
1712835295840060000,8.871059814453124,-1.1259773969650269,0.3151301145553589,0.82917320728302
1712835295860060000,8.891059814453126,-1.0422887802124023,-0.12896892428398132,0.9189704060554504
1712835295880060000,8.911059814453125,-0.5700899958610535,-0.017180584371089935,0.8554404377937317
1712835295900060000,8.931059814453125,-0.2719877362251282,0.2235003262758255,0.5170210599899292
1712835295920060000,8.951059814453124,0.2344195395708084,2.0524308681488037,0.030161472037434578
1712835295940060000,8.971059814453126,0.9137017130851746,4.5728607177734375,-0.3931681513786316
1712835295960060000,8.991059814453125,1.6308574676513672,5.3798136711120605,-0.8989645838737488
1712835295980060000,9.011059814453125,2.1390974521636963,4.774446487426758,-1.3638330698013306
1712835296000060000,9.031059814453124,2.1293234825134277,3.4897968769073486,-1.7175240516662598
1712835296020060000,9.051059814453126,2.1012237071990967,3.49895977973938,-1.8769598007202148
1712835296040060000,9.071059814453125,1.613753318786621,3.6376261711120605,-2.4255168437957764
1712835296060060200,9.09106005859375,1.2148582935333252,3.6877171993255615,-2.2776873111724854
1712835296080060200,9.11106005859375,0.9961684942245483,2.460488796234131,-1.340009331703186
1712835296100060200,9.13106005859375,0.4732678532600403,0.9595929384231567,-1.1426998376846313
1712835296120060200,9.15106005859375,0.4928155243396759,0.009086620062589645,-1.3284028768539429
1712835296140060200,9.17106005859375,0.5532912015914917,-0.07338018715381622,-0.8965210914611816
1712835296160060000,9.191059814453125,0.3266601860523224,0.4220315217971802,-0.3216969072818756
1712835296180060000,9.211059814453124,0.20082195103168488,0.31085404753685,-0.0290924571454525
1712835296200060200,9.23106005859375,0.06582073122262955,-0.24381159245967865,0.14928019046783447
1712835296220060200,9.25106005859375,-0.19868391752243042,-0.7483862638473511,0.5109124183654785
1712835296240060200,9.27106005859375,-0.4124867618083954,-1.3641384840011597,0.9159160852432251
1712835296260060200,9.29106005859375,-0.5908594131469727,-2.0434205532073975,1.285489559173584
1712835296280060200,9.31106005859375,-0.8504771590232849,-2.7892870903015137,1.6746107339859009
1712835296300060000,9.331059814453125,-1.2725850343704224,-3.8796815872192383,2.041740655899048
1712835296320060000,9.351059814453125,-1.8852828741073608,-5.166774749755859,1.7344754934310913
1712835296340060000,9.371059814453124,-2.3330471515655518,-6.351853370666504,1.1700360774993896
1712835296360060000,9.391059814453126,-1.8474092483520508,-6.5772624015808105,1.1120038032531738
1712835296380060000,9.411059814453125,-1.00502610206604,-4.488714218139648,0.38324159383773804
1712835296400060000,9.431059814453125,-0.7197519540786743,-2.3280837535858154,0.0038942659739404917
1712835296420060000,9.451059814453124,-0.4925101101398468,-0.4576144218444824,-0.21784982085227966
1712835296440060000,9.471059814453126,0.08597928285598755,-0.5504659414291382,-0.4041637182235718
1712835296460060000,9.491059814453125,0.5325217843055725,-1.240743637084961,-0.747469961643219
1712835296480060000,9.511059814453125,0.802524209022522,-1.0153343677520752,-0.9441685676574707
1712835296500060000,9.531059814453124,0.889267086982727,-0.11736248433589935,-0.8775842785835266
1712835296520060000,9.551059814453126,0.8385652899742126,0.5564218759536743,-0.9203448295593262
1712835296540060000,9.571059814453125,0.821461021900177,0.8801804780960083,-0.9551641941070557
1712835296560060200,9.59106005859375,0.7677049040794373,0.7024186849594116,-0.919123113155365
1712835296580060200,9.61106005859375,0.6107125282287598,0.38171443343162537,-0.8146651387214661
1712835296600060200,9.63106005859375,0.37369680404663086,-0.10270171612501144,-0.6301838755607605
1712835296620060200,9.65106005859375,0.048716504126787186,-0.5315291285514832,-0.3125339448451996
1712835296640060200,9.67106005859375,-0.25671613216400146,-0.8589528799057007,-0.04986187443137169
1712835296660060000,9.691059814453125,-0.5334380865097046,-0.7642687559127808,0.09369145333766937
1712835296680060000,9.711059814453124,-0.8761335015296936,-0.4527274966239929,0.20120373368263245
1712835296700060200,9.73106005859375,-1.0557278394699097,-0.061162881553173065,0.27634015679359436
1712835296720060200,9.75106005859375,-1.1229230165481567,0.3639993369579315,0.44982588291168213
1712835296740060200,9.77106005859375,-1.0569496154785156,0.7317401766777039,0.6263659596443176
1712835296760060200,9.79106005859375,-0.9775370955467224,0.9235519170761108,0.7876343727111816
1712835296780060200,9.81106005859375,-0.9592111706733704,0.8875108361244202,0.8609381914138794
1712835296800060000,9.831059814453125,-0.9152288436889648,0.6407212615013123,0.9146943688392639
1712835296820060000,9.851059814453125,-0.8993463516235352,0.4373031556606293,1.0362565517425537
1712835296840060000,9.871059814453124,-0.7283040881156921,0.22533291578292847,0.8988118767738342
1712835296860060000,9.891059814453126,-0.6201809644699097,-0.19738583266735077,0.8346710205078125
1712835296880060000,9.911059814453125,-0.3868304193019867,0.3035236597061157,0.6520223021507263
1712835296900060000,9.931059814453125,0.3315471112728119,1.8013652563095093,0.3508657217025757
1712835296920060000,9.951059814453124,0.9729556441307068,3.7573556900024414,-0.11766792088747025
1712835296940060000,9.971059814453126,1.3645201921463013,5.188002109527588,-0.4847979247570038
1712835296960060000,9.991059814453125,1.648572564125061,4.841641426086426,-0.9166796803474426
1712835296980060000,10.011059814453125,1.7438675165176392,3.8239400386810303,-1.4414129257202148
1712835297000060000,10.031059814453124,1.736537218093872,3.6706128120422363,-1.7425694465637207
1712835297020060000,10.051059814453126,1.3785701990127563,3.5899786949157715,-2.2367594242095947
1712835297040060000,10.071059814453125,1.26067316532135,3.5820374488830566,-2.8561768531799316
1712835297060060200,10.09106005859375,0.8251262307167053,2.817845106124878,-1.7034740447998047
1712835297080060200,10.11106005859375,0.37430769205093384,0.773279070854187,-1.1213195323944092
1712835297100060200,10.13106005859375,0.4714352488517761,-1.4637094736099243,-1.3674981594085693
1712835297120060200,10.15106005859375,0.4977024495601654,-1.7331010103225708,-1.278311848640442
1712835297140060200,10.17106005859375,0.4231768846511841,-1.0483211278915405,-0.7651850581169128
1712835297160060000,10.191059814453125,0.3309362530708313,-0.04711298272013664,-0.3363576829433441
1712835297180060000,10.211059814453124,0.1592831164598465,0.7286858558654785,0.00939205288887024
1712835297200060200,10.23106005859375,0.05910121276974678,0.7561748027801514,0.26106852293014526
1712835297220060200,10.25106005859375,-0.03191770985722542,0.4965570867061615,0.4522693455219269
1712835297240060200,10.27106005859375,-0.2194533348083496,0.16424639523029327,0.8157341480255127
1712835297260060200,10.29106005859375,-0.4558582007884979,-0.5376377701759338,1.349630355834961
1712835297280060200,10.31106005859375,-0.7283040881156921,-1.8626044988632202,1.6367371082305908
1712835297300060000,10.331059814453125,-1.147357702255249,-3.2156710624694824,1.7876207828521729
1712835297320060000,10.351059814453125,-2.1229095458984375,-5.0110039710998535,1.5738179683685303
1712835297340060000,10.371059814453124,-2.534632682800293,-6.591923236846924,1.0038806200027466
1712835297360060000,10.391059814453126,-2.0838141441345215,-6.533280372619629,0.8786532878875732
1712835297380060000,10.411059814453125,-1.1943942308425903,-5.171661376953125,0.12056952714920044
1712835297400060000,10.431059814453125,-0.9372199773788452,-2.6548967361450195,-0.04619668424129486
1712835297420060000,10.451059814453124,-0.413097620010376,-0.3122285008430481,0.028939740732312202
1712835297440060000,10.471059814453126,0.1036943718791008,0.6272822618484497,-0.08040513843297958
1712835297460060000,10.491059814453125,0.2863430976867676,-0.18761198222637177,-0.3278055489063263
1712835297480060000,10.511059814453125,0.31932979822158813,-1.1045206785202026,-0.5519931316375732
1712835297500060000,10.531059814453124,0.44516804814338684,-1.1900418996810913,-0.7462482452392578
1712835297520060000,10.551059814453126,0.7896960377693176,-0.8882744312286377,-0.8116108179092407
1712835297540060000,10.571059814453125,0.9479101300239563,-0.6708064079284668,-0.8635343909263611
1712835297560060200,10.59106005859375,0.9326385259628296,-0.33544138073921204,-0.9240100383758545
1712835297580060200,10.61106005859375,0.8910996913909912,0.0872773751616478,-0.928896963596344
1712835297600060200,10.63106005859375,0.7298312783241272,0.26626089215278625,-0.7651850581169128
1712835297620060200,10.65106005859375,0.48609602451324463,0.10010553896427155,-0.5464953184127808
1712835297640060200,10.67106005859375,0.2515237629413605,-0.17417295277118683,-0.39561161398887634
1712835297660060000,10.691059814453125,0.04138612002134323,-0.32566753029823303,-0.2758820056915283
1712835297680060000,10.711059814453124,-0.19257527589797974,-0.24014639854431152,-0.0749073475599289
1712835297700060200,10.73106005859375,-0.49128836393356323,-0.041004329919815063,0.1731039434671402
1712835297720060200,10.75106005859375,-0.755182147026062,0.17951802909374237,0.3551417887210846
1712835297740060200,10.77106005859375,-0.9097310900688171,0.40859249234199524,0.49380818009376526
1712835297760060200,10.79106005859375,-0.9665415287017822,0.6297256946563721,0.5994879007339478
1712835297780060200,10.81106005859375,-1.0337367057800293,0.7977136373519897,0.725937008857727
1712835297800060000,10.831059814453125,-1.1895073652267456,0.772668182849884,0.9690613746643066
1712835297820060000,10.851059814453125,-1.2768610715866089,0.4464661478996277,1.0325913429260254
1712835297840060000,10.871059814453124,-1.2218831777572632,0.07567093521356583,1.084514856338501
1712835297860060000,10.891059814453126,-1.041067123413086,-0.3329979181289673,1.1498774290084839
1712835297880060000,10.911059814453125,-0.6995934247970581,-0.5663484334945679,1.1565970182418823
1712835297900060000,10.931059814453125,-0.4625777006149292,-0.348880410194397,0.7204391956329346
1712835297920060000,10.951059814453124,0.3358231782913208,1.871614694595337,0.24152085185050964
1712835297940060000,10.971059814453126,1.4298827648162842,4.990692615509033,-0.11278099566698074
1712835297960060000,10.991059814453125,1.7768542766571045,6.461656093597412,-0.6045275330543518
1712835297980060000,11.011059814453125,2.286926746368408,5.687689781188965,-0.9960921406745911
1712835298000060000,11.031059814453124,2.3125832080841064,4.833089351654053,-1.39559805393219
1712835298020060000,11.051059814453126,2.127490997314453,4.024303913116455,-1.9869155883789062
1712835298040060000,11.071059814453125,2.0554087162017822,3.594254732131958,-2.3222806453704834
1712835298060060200,11.09106005859375,1.3700180053710938,2.9754481315612793,-1.5018885135650635
1712835298080060200,11.11106005859375,0.5508477091789246,1.0066295862197876,-1.0284680128097534
1712835298100060200,11.13106005859375,0.26862800121307373,-0.25358542799949646,-1.1762974262237549
1712835298120060200,11.15106005859375,0.13790282607078552,-0.037950001657009125,-0.8519279360771179
1712835298140060200,11.17106005859375,-0.09789115190505981,0.5710826516151428,-0.41149410605430603
1712835298160060000,11.191059814453125,-0.2799290120601654,0.8404742479324341,-0.18241962790489197
1712835298180060000,11.211059814453124,-0.38438695669174194,0.29802587628364563,-0.051083605736494064
1712835298200060200,11.23106005859375,-0.5077817440032959,-0.5034292936325073,0.18104518949985504
1712835298220060200,11.25106005859375,-0.6000223755836487,-1.2663999795913696,0.5078580975532532
1712835298240060200,11.27106005859375,-0.6745479702949524,-1.8106809854507446,0.8261188864707947
1712835298260060200,11.29106005859375,-0.8419250249862671,-2.0629682540893555,1.1785881519317627
1712835298280060200,11.31106005859375,-1.1675162315368652,-2.455143690109253,1.3251957893371582
1712835298300060000,11.331059814453125,-1.5908458232879639,-3.089221954345703,1.5096770524978638
1712835298320060000,11.351059814453125,-2.252412796020508,-4.04033899307251,1.4931837320327759
1712835298340060000,11.371059814453124,-2.9909489154815674,-5.612095355987549,0.76136714220047
1712835298360060000,11.391059814453126,-2.5767822265625,-7.019528865814209,1.1675925254821777
1712835298380060000,11.411059814453125,-0.9665415287017822,-6.544886589050293,0.7870234847068787
1712835298400060000,11.431059814453125,-0.8669704794883728,-5.017723560333252,0.09124799817800522
1712835298420060000,11.451059814453124,-0.878576934337616,-2.409939765930176,-0.10300715267658234
1712835298440060000,11.471059814453126,-0.37339138984680176,-0.09903652966022491,0.05032002553343773
1712835298460060000,11.491059814453125,0.10491610318422318,-0.9554696083068848,-0.1396590620279312
1712835298480060000,11.511059814453125,0.8568912148475647,-1.6365844011306763,-0.5581017732620239
1712835298500060000,11.531059814453124,1.0651962757110596,-1.0348820686340332,-0.6161339282989502
1712835298520060000,11.551059814453126,1.1073459386825562,0.12576188147068024,-0.7725154757499695
1712835298540060000,11.571059814453125,1.232573390007019,1.162400245666504,-0.9631054401397705
1712835298560060200,11.59106005859375,1.2301298379898071,1.6339881420135498,-1.0791698694229126
1712835298580060200,11.61106005859375,1.1482739448547363,1.9168187379837036,-0.9490554928779602
1712835298600060200,11.63106005859375,0.9527970552444458,1.8025870323181152,-0.6759987473487854
1712835298620060200,11.65106005859375,0.7365507483482361,0.9974665641784668,-0.5428301095962524
1712835298640060200,11.67106005859375,0.5313000679016113,0.047571130096912384,-0.463417649269104
1712835298660060000,11.691059814453125,0.28328874707221985,-0.25786149501800537,-0.23923009634017944
1712835298680060000,11.711059814453124,0.016951510682702065,-0.020234910771250725,0.02710714563727379
1712835298700060200,11.73106005859375,-0.25732699036598206,0.37132972478866577,0.3142138123512268
1712835298720060200,11.75106005859375,-0.4815145432949066,0.563141405582428,0.5274057984352112
1712835298740060200,11.77106005859375,-0.6488916277885437,0.6285039782524109,0.6508005857467651
1712835298760060200,11.79106005859375,-0.7130324840545654,0.6529386043548584,0.7192174792289734
1712835298780060200,11.81106005859375,-0.7790058851242065,0.6449973583221436,0.8016842603683472
1712835298800060000,11.831059814453125,-0.8932377099990845,0.6052911281585693,0.9843329787254333
1712835298820060000,11.851059814453125,-1.0264062881469727,0.4617377817630768,1.1144472360610962
1712835298840060000,11.871059814453124,-0.9011789560317993,0.40798163414001465,1.074741005897522
1712835298860060000,11.891059814453126,-0.6818783283233643,0.12454015016555786,0.9397398233413696
1712835298880060000,11.911059814453125,-0.3349068760871887,0.3951534628868103,0.8084037899971008
1712835298900060000,11.931059814453125,0.3859141170978546,1.352379322052002,0.2934443950653076
1712835298920060000,11.951059814453124,1.2789990901947021,3.3798410892486572,-0.32047519087791443
1712835298940060000,11.971059814453126,1.7573065757751465,4.788496494293213,-0.6625596880912781
1712835298960060000,11.991059814453125,1.9827158451080322,4.77994441986084,-1.2752575874328613
1712835298980060000,12.011059814453125,2.1372647285461426,4.081725120544434,-1.4933364391326904
1712835299000060000,12.031059814453124,2.125047445297241,3.694436550140381,-1.7004197835922241
1712835299020060000,12.051059814453126,1.8611537218093872,3.94061541557312,-1.991802453994751
1712835299040060000,12.071059814453125,1.403004765510559,4.4580183029174805,-2.5983917713165283
1712835299060060200,12.09106005859375,0.8465065360069275,3.881972312927246,-2.0577759742736816
1712835299080060200,12.11106005859375,0.15195272862911224,2.1159608364105225,-1.366276502609253
1712835299100060200,12.13106005859375,-0.31352660059928894,0.08361218124628067,-1.212949275970459
1712835299120060200,12.15106005859375,-0.27320948243141174,-0.6793584823608398,-1.0516809225082397
1712835299140060200,12.17106005859375,-0.3862195611000061,-0.30062204599380493,-0.8164977431297302
1712835299160060000,12.191059814453125,-0.6354525685310364,0.7329619526863098,0.06253732740879059
1712835299180060000,12.211059814453124,-0.6189591884613037,0.8227591514587402,0.5872705578804016
1712835299200060200,12.23106005859375,-0.6659958362579346,-0.15829046070575714,0.7882452607154846
1712835299220060200,12.25106005859375,-0.4992296099662781,-1.9731711149215698,1.26472008228302
1712835299240060200,12.27106005859375,-0.5169447064399719,-3.018972396850586,1.6819411516189575
1712835299260060200,12.29106005859375,-0.7954992651939392,-3.657937526702881,2.0014235973358154
1712835299280060200,12.31106005859375,-1.3110694885253906,-4.004909038543701,2.253710985183716
1712835299300060000,12.331059814453125,-2.0783162117004395,-4.72206449508667,1.9647717475891113
1712835299320060000,12.351059814453125,-2.5419631004333496,-5.760535717010498,1.9348392486572266
1712835299340060000,12.371059814453124,-1.5175420045852661,-6.310925006866455,2.3221278190612793
1712835299360060000,12.391059814453126,-0.41493022441864014,-5.981058120727539,1.1309406757354736
1712835299380060000,12.411059814453125,-0.7441865801811218,-3.089221954345703,0.6202573180198669
1712835299400060000,12.431059814453125,-0.23167064785957336,-0.09231700748205185,0.41195225715637207
1712835299420060000,12.451059814453124,0.01878410577774048,0.9064476490020752,-0.14698944985866547
1712835299440060000,12.471059814453126,0.2814561724662781,0.10621419548988342,-0.4933500289916992
1712835299460060000,12.491059814453125,0.517250120639801,-0.47044259309768677,-0.7517460584640503
1712835299480060000,12.511059814453125,0.6235406994819641,-0.6640868782997131,-0.8378780484199524
1712835299500060000,12.531059814453124,0.8367326855659485,-0.6213263273239136,-0.8323802351951599
1712835299520060000,12.551059814453126,0.9821186065673828,-0.14851661026477814,-1.0125855207443237
1712835299540060000,12.571059814453125,0.9558513760566711,0.4568508565425873,-0.8659778237342834
1712835299560060200,12.59106005859375,0.8061894178390503,0.8545241355895996,-0.5544365644454956
1712835299580060200,12.61106005859375,0.6290385127067566,0.753731369972229,-0.3369685411453247
1712835299600060200,12.63106005859375,0.4964807331562042,0.420198917388916,-0.28382325172424316
1712835299620060200,12.65106005859375,0.417679101228714,0.2393828183412552,-0.19341520965099335
1712835299640060200,12.67106005859375,0.337044894695282,0.11293371021747589,-0.05597052723169327
1712835299660060000,12.691059814453125,0.1440114825963974,0.06895141303539276,0.06375905871391296
1712835299680060000,12.711059814453124,-0.15042556822299957,-0.05383250117301941,0.19631682336330414
1712835299700060200,12.73106005859375,-0.3917173445224762,-0.26946792006492615,0.3099377453327179
1712835299720060200,12.75106005859375,-0.6611089110374451,-0.3384957015514374,0.3899610936641693
1712835299740060200,12.77106005859375,-0.7625125646591187,-0.37514761090278625,0.3600287139415741
1712835299760060200,12.79106005859375,-0.7142542004585266,-0.34460434317588806,0.3410918712615967
1712835299780060200,12.81106005859375,-0.5908594131469727,-0.11308643221855164,0.2897791862487793
1712835299800060000,12.831059814453125,-0.37950003147125244,0.3945426046848297,0.1688278764486313
1712835299820060000,12.851059814453125,-0.11560624837875366,0.8044331669807434,-0.06635523587465286
1712835299840060000,12.871059814453124,0.08414668589830399,0.9711993932723999,-0.2862667143344879
1712835299860060000,12.891059814453126,0.2997821271419525,0.7659486532211304,-0.4481460154056549
1712835299880060000,12.911059814453125,0.4970915913581848,0.31757357716560364,-0.5159520506858826
1712835299900060000,12.931059814453125,0.5441282391548157,0.02252565510571003,-0.4744132161140442
1712835299920060000,12.951059814453124,0.36453384160995483,-0.09720393270254135,-0.4023311138153076
1712835299940060000,12.971059814453126,0.08414668589830399,-0.09048441797494888,-0.4084397852420807
1712835299960060000,12.991059814453125,-0.1241583600640297,0.010308351367712021,-0.47196975350379944
1712835299980060000,13.011059814453125,-0.21395555138587952,0.1929570585489273,-0.47196975350379944
1712835300000060000,13.031059814453124,-0.17608191072940826,0.1428661048412323,-0.3772856593132019
1712835300020060000,13.051059814453126,-0.11804971098899841,-0.2016618847846985,-0.2862667143344879
1712835300040060000,13.071059814453125,-0.039248090237379074,-0.7447211146354675,-0.1799761801958084
1712835300060060200,13.09106005859375,0.02367102913558483,-1.0776426792144775,-0.15859588980674744
1712835300080060200,13.11106005859375,0.33948835730552673,-0.8455138802528381,-0.2862667143344879
1712835300100060200,13.13106005859375,0.5942191481590271,-0.41668644547462463,-0.42065706849098206
1712835300120060200,13.15106005859375,0.5691736936569214,-0.03550654277205467,-0.5635995268821716
1712835300140060200,13.17106005859375,0.40912699699401855,0.22594378888607025,-0.6271295547485352
1712835300160060000,13.191059814453125,0.275958389043808,0.128205344080925,-0.5269476175308228
1712835300180060000,13.211059814453124,0.12079860270023346,-0.2908482253551483,-0.45058947801589966
1712835300200060200,13.23106005859375,-0.10522153973579407,-0.6537021994590759,-0.37056612968444824
1712835300220060200,13.25106005859375,-0.3520110845565796,-0.8827766180038452,-0.32536208629608154
1712835300240060200,13.27106005859375,-0.5132794976234436,-0.901102602481842,-0.3223077654838562
1712835300260060200,13.29106005859375,-0.5242751240730286,-0.6763041615486145,-0.29909488558769226
1712835300280060200,13.31106005859375,-0.46379944682121277,-0.35437819361686707,-0.17386752367019653
1712835300300060000,13.331059814453125,-0.41431936621665955,-0.19738583266735077,0.054596081376075745
1712835300320060000,13.351059814453125,-0.351400226354599,-0.2572506368160248,0.1175151988863945
1712835300340060000,13.371059814453124,-0.27748554944992065,-0.48021644353866577,0.000839939690195024
1712835300360060000,13.391059814453126,-0.31352660059928894,-0.5950590968132019,-0.029703322798013687
1712835300380060000,13.411059814453125,-0.38499781489372253,-0.358654260635376,-0.03520110994577408
1712835300400060000,13.431059814453125,-0.20234911143779755,0.04512767121195793,-0.06818783283233643
1712835300420060000,13.451059814453124,0.18310685455799103,0.27236953377723694,-0.013209961354732513
1712835300440060000,13.471059814453126,0.4329507350921631,0.2680934965610504,0.05276348441839218
1712835300460060000,13.491059814453125,0.3859141170978546,0.2033417671918869,0.1278999149799347
1712835300480060000,13.511059814453125,0.21731531620025635,0.1422552466392517,0.14133894443511963
1712835300500060000,13.531059814453124,0.1385136991739273,0.12209668755531311,0.13889548182487488
1712835300520060000,13.551059814453126,0.13729196786880493,0.2235003262758255,0.15172365307807922
1712835300540060000,13.571059814453125,0.10308351367712021,0.4318053722381592,0.2189188301563263
1712835300560060200,13.59106005859375,0.08231408894062042,0.6651558876037598,0.2891683280467987
1712835300580060200,13.61106005859375,0.11652254313230515,0.6963100433349609,0.3343723714351654
1712835300600060200,13.63106005859375,0.18738290667533875,0.4977788031101227,0.3759112060070038
1712835300620060200,13.65106005859375,0.17638733983039856,0.1477530300617218,0.4901430010795593
1712835300640060200,13.67106005859375,-0.00015271631127689034,-0.1405753642320633,0.6440810561180115
1712835300660060000,13.691059814453125,-0.28237244486808777,-0.3360522389411926,0.79129958152771
1712835300680060000,13.711059814453124,-0.5694791078567505,-0.3018437922000885,0.8731555342674255
1712835300700060200,13.73106005859375,-0.7136433124542236,-0.12286027520895004,0.9195812940597534
1712835300720060200,13.75106005859375,-0.7606799602508545,0.2039526402950287,1.0026589632034302
1712835300740060200,13.77106005859375,-0.8290968537330627,0.5484806299209595,1.049695611000061
1712835300760060200,13.79106005859375,-0.8846855759620667,0.7482335567474365,1.0277043581008911
1712835300780060200,13.81106005859375,-0.8761335015296936,0.7305184602737427,0.9751700162887573
1712835300800060000,13.831059814453125,-0.765566885471344,0.4617377817630768,0.9727265238761902
1712835300820060000,13.851059814453125,-0.43447789549827576,0.2595413625240326,1.069243311882019
1712835300840060000,13.871059814453124,-0.1137736514210701,0.04329507425427437,0.8084037899971008
1712835300860060000,13.891059814453126,0.44944411516189575,0.5949063897132874,0.4754822254180908
1712835300880060000,13.911059814453125,1.4414892196655273,2.3645830154418945,0.10896308720111847
1712835300900060000,13.931059814453125,2.239279270172119,4.101273059844971,-0.06269004940986633
1712835300920060000,13.951059814453124,2.6815457344055176,4.900895595550537,-0.45058947801589966
1712835300940060000,13.971059814453126,2.9778153896331787,4.564919471740723,-0.5935319662094116
1712835300960060000,13.991059814453125,3.0547842979431152,3.990706205368042,-0.8281041979789734
1712835300980060000,14.011059814453125,2.6626088619232178,4.766505241394043,-1.223944902420044
1712835301000060000,14.031059814453124,1.584431767463684,4.903949737548828,-1.6619352102279663
1712835301020060000,14.051059814453126,1.2838860750198364,3.4036648273468018,-0.9985355734825134
1712835301040060000,14.071059814453125,0.870330274105072,1.0799334049224854,-1.0205267667770386
1712835301060060200,14.09106005859375,0.6241515874862671,-0.044058654457330704,-1.1121565103530884
1712835301080060200,14.11106005859375,0.7475463151931763,0.21067215502262115,-0.7780132293701172
1712835301100060200,14.13106005859375,0.41340306401252747,1.1196396350860596,-0.31497737765312195
1712835301120060200,14.15106005859375,0.08109235763549805,0.3994295001029968,-0.26977336406707764
1712835301140060200,14.17106005859375,0.03344487398862839,-0.5700136423110962,0.02038762718439102
1712835301160060000,14.191059814453125,-0.16019940376281738,-1.3726905584335327,0.2952769994735718
1712835301180060000,14.211059814453124,-0.3813326358795166,-1.7147750854492188,0.4302782118320465
1712835301200060200,14.23106005859375,-0.5267185568809509,-1.6982817649841309,0.6220899224281311
1712835301220060200,14.25106005859375,-0.6684392690658569,-1.7416532039642334,0.8242862820625305
1712835301240060200,14.27106005859375,-0.9714284539222717,-2.337857723236084,1.0374782085418701
1712835301260060200,14.29106005859375,-1.5004377365112305,-3.276146650314331,1.2127965688705444
1712835301280060200,14.31106005859375,-2.0337231159210205,-4.073936462402344,1.0991756916046143
1712835301300060000,14.331059814453125,-2.4521658420562744,-4.186336040496826,0.810236394405365
1712835301320060000,14.351059814453125,-2.551736831665039,-3.814929723739624,0.8933140635490417
1712835301340060000,14.371059814453124,-2.2658519744873047,-3.5931856632232666,0.7741953134536743
1712835301360060000,14.391059814453126,-1.9091066122055054,-2.7245354652404785,0.39729148149490356
1712835301380060000,14.411059814453125,-1.486387848854065,-2.0458641052246094,0.03810271993279457
1712835301400060000,14.431059814453125,-0.9867000579833984,-1.811902642250061,-0.24472789466381073
1712835301420060000,14.451059814453124,-0.49006664752960205,-1.955456018447876,-0.566653847694397
1712835301440060000,14.471059814453126,0.005345070734620094,-1.9090301990509033,-0.663170576095581
1712835301460060000,14.491059814453125,0.3572034537792206,-1.1631637811660767,-0.6888269186019897
1712835301480060000,14.511059814453125,0.6162103414535522,-0.16867516934871674,-0.7340309619903564
1712835301500060000,14.531059814453124,0.8092437386512756,0.6749297380447388,-0.8794168829917908
1712835301520060000,14.551059814453126,0.9497427344322205,1.1935542821884155,-0.9545533061027527
1712835301540060000,14.571059814453125,0.9961684942245483,1.1868348121643066,-0.9032406210899353
1712835301560060200,14.59106005859375,0.9326385259628296,0.9492082595825195,-0.8048913478851318
1712835301580060200,14.61106005859375,0.7768678665161133,0.6394995450973511,-0.6546184420585632
1712835301600060200,14.63106005859375,0.5380195379257202,0.2949715554714203,-0.5031238794326782
1712835301620060200,14.65106005859375,0.2594650089740753,0.16180293262004852,-0.37545305490493774
1712835301640060200,14.67106005859375,0.04077525436878204,0.2180025279521942,-0.27404943108558655
1712835301660060000,14.691059814453125,-0.10155634582042694,0.40737074613571167,-0.11888964474201202
1712835301680060000,14.711059814453124,-0.2255619913339615,0.5521458387374878,0.07047858089208603
1712835301700060200,14.73106005859375,-0.38377609848976135,0.5289329290390015,0.32154420018196106
1712835301720060200,14.75106005859375,-0.5829181671142578,0.25709789991378784,0.5329035520553589
1712835301740060200,14.77106005859375,-0.7686212062835693,-0.08865182101726532,0.6318637132644653
1712835301760060200,14.79106005859375,-0.897513747215271,-0.3110067546367645,0.6709591150283813
1712835301780060200,14.81106005859375,-1.0667234659194946,-0.27802005410194397,0.7363216876983643
1712835301800060000,14.831059814453125,-1.2622003555297852,-0.0391717329621315,0.7601454257965088
1712835301820060000,14.851059814453125,-1.275639295578003,0.24976752698421478,0.8071820735931396
1712835301840060000,14.871059814453124,-1.1510227918624878,0.28275424242019653,0.8206210732460022
1712835301860060000,14.891059814453126,-1.0264062881469727,0.04268420860171318,0.7760279178619385
1712835301880060000,14.911059814453125,-0.8486445546150208,-0.16317738592624664,0.8975901007652283
1712835301900060000,14.931059814453125,-0.5780312418937683,-0.06543894112110138,0.6062073707580566
1712835301920060000,14.951059814453124,-0.20601430535316467,0.61139976978302,0.28244882822036743
1712835301940060000,14.971059814453126,0.365755558013916,2.4727060794830322,-0.09506590664386749
1712835301960060000,14.991059814453125,0.9570731520652771,3.8966331481933594,-0.6369034051895142
1712835301980060000,15.011059814453125,1.4213306903839111,4.337066650390625,-1.0962740182876587
1712835302000060000,15.031059814453124,1.6968309879302979,4.170300483703613,-1.3968197107315063
1712835302020060000,15.051059814453126,1.6320792436599731,3.4036648273468018,-1.6338354349136353
1712835302040060000,15.071059814453125,1.5624406337738037,3.379230260848999,-1.8647425174713135
1712835302060060200,15.09106005859375,1.2154691219329834,3.5502724647521973,-2.504929304122925
1712835302080060200,15.11106005859375,0.9210320711135864,3.192305326461792,-2.2978460788726807
1712835302100060200,15.13106005859375,0.4378376603126526,2.0683133602142334,-1.4487433433532715
1712835302120060200,15.15106005859375,-0.1290452778339386,0.5423719882965088,-1.10849130153656
1712835302140060200,15.17106005859375,-0.2194533348083496,-0.7636579275131226,-1.0779480934143066
1712835302160060000,15.191059814453125,-0.12110403180122375,-0.9151524901390076,-0.7364743947982788
1712835302180060000,15.211059814453124,-0.13820825517177582,-0.4423427879810333,-0.2807689309120178
1712835302200060200,15.23106005859375,-0.24694228172302246,-0.19677497446537018,0.27084237337112427
1712835302220060200,15.25106005859375,-0.30741792917251587,-0.6561456322669983,0.8139016032218933
1712835302240060200,15.27106005859375,-0.351400226354599,-1.4478269815444946,1.2732722759246826
1712835302260060200,15.29106005859375,-0.4778493344783783,-1.9927188158035278,1.7454711198806763
1712835302280060200,15.31106005859375,-0.8119926452636719,-2.401998519897461,2.1321487426757812
1712835302300060000,15.331059814453125,-1.3190107345581055,-3.022026777267456,2.251878261566162
1712835302320060000,15.351059814453125,-1.7429512739181519,-3.915111780166626,1.923232913017273
1712835302340060000,15.371059814453124,-1.7899879217147827,-5.279784679412842,1.3991104364395142
1712835302360060000,15.391059814453126,-1.059393048286438,-5.645081996917725,1.1394927501678467
1712835302380060000,15.411059814453125,-0.8064948320388794,-4.480772972106934,0.761978030204773
1712835302400060000,15.431059814453125,-0.6207917928695679,-2.7282004356384277,0.5500078201293945
1712835302420060000,15.451059814453124,-0.4112650156021118,-1.0208321809768677,0.060093868523836136
1712835302440060000,15.471059814453126,-0.26221391558647156,-0.5950590968132019,-0.2673299014568329
1712835302460060000,15.491059814453125,0.07009678333997726,-1.0477102994918823,-0.3742313086986542
1712835302480060000,15.511059814453125,0.4421137273311615,-1.1411726474761963,-0.6656140685081482
1712835302500060000,15.531059814453124,0.7255551815032959,-0.32383492588996887,-0.663781464099884
1712835302520060000,15.551059814453126,0.8355109095573425,0.32246050238609314,-0.757854700088501
1712835302540060000,15.571059814453125,0.9405797719955444,0.7647269368171692,-0.948444664478302
1712835302560060200,15.59106005859375,0.964403510093689,1.1507937908172607,-0.9252317547798157
1712835302580060200,15.61106005859375,0.7560984492301941,1.2766319513320923,-0.6998224854469299
1712835302600060200,15.63106005859375,0.437226802110672,0.8404742479324341,-0.4579198658466339
1712835302620060200,15.65106005859375,0.23747386038303375,0.14103351533412933,-0.24900394678115845
1712835302640060200,15.67106005859375,0.019394971430301666,-0.33483052253723145,-0.09628763794898987
1712835302660060000,15.691059814453125,-0.22372940182685852,-0.2822960913181305,-0.002825251780450344
1712835302680060000,15.711059814453124,-0.4021020531654358,0.18012888729572296,0.12056952714920044
1712835302700060200,15.73106005859375,-0.4583016633987427,0.6853144764900208,0.2696206569671631
1712835302720060200,15.75106005859375,-0.4619668424129486,0.847804605960846,0.4113413989543915
1712835302740060200,15.77106005859375,-0.5181664228439331,0.7549530863761902,0.5457317233085632
1712835302760060200,15.79106005859375,-0.5988006591796875,0.5374850630760193,0.6257550716400146
1712835302780060200,15.81106005859375,-0.7057020664215088,0.3756057620048523,0.735710859298706
1712835302800060000,15.831059814453125,-0.7502952218055725,0.07506006956100464,0.8175667524337769
1712835302820060000,15.851059814453125,-0.7912232279777527,-0.2560288906097412,0.9611201286315918
1712835302840060000,15.871059814453124,-0.7826710939407349,-0.49060115218162537,1.0588585138320923
1712835302860060000,15.891059814453126,-0.6488916277885437,-0.4398993253707886,1.0417543649673462
1712835302880060000,15.911059814453125,-0.5682573914527893,-0.12286027520895004,0.8743772506713867
1712835302900060000,15.931059814453125,-0.21273382008075714,0.704862117767334,0.5029711723327637
1712835302920060000,15.951059814453124,0.3449861407279968,2.5466208457946777,0.018555032089352608
1712835302940060000,15.971059814453126,0.7341073155403137,4.173965930938721,-0.4292092025279999
1712835302960060000,15.991059814453125,1.2539535760879517,4.422587871551514,-0.7700719833374023
1712835302980060000,16.011059814453127,1.7206547260284424,3.273550510406494,-1.3149638175964355
1712835303000060000,16.031059814453126,1.7340936660766602,2.8893163204193115,-1.3479505777359009
1712835303020060000,16.051059814453126,1.5734361410140991,2.9284117221832275,-1.3784937858581543
1712835303040060000,16.071059814453125,1.2179125547409058,3.3242523670196533,-1.632002830505371
1712835303060060200,16.09106005859375,0.7585419416427612,3.6015851497650146,-2.1408536434173584
1712835303080060200,16.11106005859375,0.5765040516853333,2.9876656532287598,-1.7297413349151611
1712835303100060200,16.13106005859375,0.12202033400535583,1.4922674894332886,-1.0492373704910278
1712835303120060200,16.15106005859375,-0.06734789162874222,-0.35926511883735657,-1.0748937129974365
1712835303140060200,16.17106005859375,0.026114489883184433,-1.1350640058517456,-1.1054370403289795
1712835303160060000,16.191059814453126,-0.004428773187100887,-0.7832056283950806,-0.7468591332435608
1712835303180060000,16.211059814453126,-0.1944078654050827,-0.0996473953127861,-0.17692184448242188
1712835303200060200,16.23106005859375,-0.3263547718524933,0.20700696110725403,0.3954588770866394
1712835303220060200,16.25106005859375,-0.38866302371025085,-0.19860756397247314,0.9244682192802429
1712835303240060200,16.27106005859375,-0.370947927236557,-1.099633812904358,1.369178056716919
1712835303260060200,16.29106005859375,-0.4668537676334381,-2.2193498611450195,1.796172857284546
1712835303280060200,16.31106005859375,-0.804051399230957,-3.4331390857696533,2.2164480686187744
1712835303300060000,16.331059814453123,-1.3684908151626587,-4.741612434387207,1.8132771253585815
1712835303320060000,16.351059814453127,-1.793653130531311,-5.886984825134277,1.3471869230270386
1712835303340060000,16.371059814453126,-1.5566374063491821,-6.538777828216553,1.6196328401565552
1712835303360060000,16.391059814453126,-0.7124215960502625,-4.7874274253845215,1.2433398962020874
1712835303380060000,16.411059814453125,-0.9640980958938599,-3.5284340381622314,0.5506186485290527
1712835303400060000,16.431059814453125,-0.5774203538894653,-0.9310349822044373,0.15538884699344635
1712835303420060000,16.451059814453124,-0.24816401302814484,-0.08865182101726532,-0.14943291246891022
1712835303440060000,16.471059814453124,0.33460143208503723,-1.3781883716583252,-0.5654321312904358
1712835303460060000,16.491059814453124,0.6846272349357605,-1.6616297960281372,-0.7517460584640503
1712835303480060000,16.511059814453127,0.8355109095573425,-1.1301770210266113,-0.8488736152648926
1712835303500060000,16.531059814453126,1.013272762298584,-0.25480717420578003,-1.0932197570800781
1712835303520060000,16.551059814453126,1.1684324741363525,0.5307655334472656,-1.2569315433502197
1712835303540060000,16.571059814453125,1.1281154155731201,0.9950231313705444,-1.0877219438552856
1712835303560060200,16.59106005859375,0.8764389157295227,0.9296605587005615,-0.776791512966156
1712835303580060200,16.61106005859375,0.640644907951355,0.3200170397758484,-0.5208389759063721
1712835303600060200,16.63106005859375,0.4579962193965912,-0.3311653137207031,-0.33391422033309937
1712835303620060200,16.65106005859375,0.25824329257011414,-0.4942663311958313,-0.16898059844970703
1712835303640060200,16.67106005859375,0.18555031716823578,-0.1405753642320633,-0.04680754989385605
1712835303660060000,16.691059814453126,0.0933096632361412,0.39271000027656555,0.07597636431455612
1712835303680060000,16.711059814453126,-0.02580905705690384,0.7677812576293945,0.1938733607530594
1712835303700060200,16.73106005859375,-0.1492038369178772,0.772668182849884,0.2781727612018585
1712835303720060200,16.75106005859375,-0.28787025809288025,0.47884199023246765,0.3801872432231903
1712835303740060200,16.77106005859375,-0.4424191415309906,0.013362676836550236,0.5322927236557007
1712835303760060200,16.79106005859375,-0.5804746747016907,-0.4185190498828888,0.6349180936813354
1712835303780060200,16.81106005859375,-0.6666067242622375,-0.5535202622413635,0.7503715753555298
1712835303800060000,16.831059814453123,-0.7392996549606323,-0.3867540657520294,0.8352818489074707
1712835303820060000,16.851059814453127,-0.7698429226875305,-0.07338018715381622,0.8804858922958374
1712835303840060000,16.871059814453126,-0.8633053302764893,0.19112446904182434,0.9165269136428833
1712835303860060000,16.891059814453126,-1.030071496963501,0.3090214431285858,0.9757808446884155
1712835303880060000,16.911059814453125,-1.1394164562225342,0.5478697419166565,0.9739482998847961
1712835303900060000,16.931059814453125,-1.0178542137145996,0.4269184470176697,1.0325913429260254
1712835303920060000,16.951059814453124,-0.47601673007011414,0.0921642929315567,0.6734025478363037
1712835303940060000,16.971059814453124,-0.23411411046981812,0.572304368019104,0.3856850564479828
1712835303960060000,16.991059814453124,0.31932979822158813,1.9278143644332886,0.036880988627672195
1712835303980060000,17.011059814453127,1.0334312915802002,3.3883931636810303,-0.44081562757492065
1712835304000060000,17.031059814453126,1.3406964540481567,4.217337131500244,-1.060843825340271
1712835304020060000,17.051059814453126,1.877036213874817,4.370053768157959,-1.2752575874328613
1712835304040060000,17.071059814453125,2.004707098007202,3.8752527236938477,-1.3699417114257812
1712835304060060200,17.09106005859375,1.9698877334594727,3.2753829956054688,-1.6882025003433228
1712835304080060200,17.11106005859375,1.8703166246414185,3.5588245391845703,-1.792049527168274
1712835304100060200,17.13106005859375,1.5007431507110596,3.468416452407837,-2.352212905883789
1712835304120060200,17.15106005859375,1.3987287282943726,3.1580970287323,-1.9588158130645752
1712835304140060200,17.17106005859375,0.8654433488845825,2.167884349822998,-0.9508880972862244
1712835304160060000,17.191059814453126,0.6436992287635803,0.21739166975021362,-0.8696430325508118
1712835304180060000,17.211059814453126,0.6180428862571716,-0.5565745830535889,-0.7993935346603394
1712835304200060200,17.23106005859375,0.6162103414535522,0.015195272862911224,-0.38033998012542725
1712835304220060200,17.25106005859375,0.456163614988327,0.7024186849594116,-0.10911580175161362
1712835304240060200,17.27106005859375,0.16233743727207184,0.5753586888313293,0.19142989814281464
1712835304260060200,17.29106005859375,-0.12232576310634613,-0.4337906837463379,0.5115233063697815
1712835304280060200,17.31106005859375,-0.3159700334072113,-1.6213127374649048,0.76136714220047
1712835304300060000,17.331059814453123,-0.3813326358795166,-2.155819892883301,1.0051023960113525
1712835304320060000,17.351059814453127,-0.6702718734741211,-2.8228845596313477,1.3532955646514893
1712835304340060000,17.371059814453126,-1.2176071405410767,-3.711693525314331,1.6630042791366577
1712835304360060000,17.391059814453126,-1.731955647468567,-4.626158714294434,1.41926908493042
1712835304380060000,17.411059814453125,-2.2059872150421143,-5.591325759887695,1.39727783203125
1712835304400060000,17.431059814453125,-2.093587875366211,-5.350034236907959,0.9537897109985352
1712835304420060000,17.451059814453124,-2.0117318630218506,-3.722689151763916,0.35758525133132935
1712835304440060000,17.471059814453124,-1.964084506034851,-1.5443437099456787,0.04115704447031021
1712835304460060000,17.491059814453124,-1.5334244966506958,-0.6860780119895935,0.25618159770965576
1712835304480060000,17.511059814453127,-0.8022187948226929,-2.005547046661377,0.132786825299263
1712835304500060000,17.531059814453126,-0.24633140861988068,-3.1741321086883545,-0.2361757755279541
1712835304520060000,17.551059814453126,0.26374107599258423,-2.329305648803711,-0.6191883087158203
1712835304540060000,17.571059814453125,0.6345362663269043,-0.47166433930397034,-0.8232172727584839
1712835304560060200,17.59106005859375,0.7744244337081909,1.1495720148086548,-1.106658697128296
1712835304580060200,17.61106005859375,0.7200574278831482,2.3303744792938232,-1.205618977546692
1712835304600060200,17.63106005859375,0.6638578176498413,2.547842502593994,-1.0730611085891724
1712835304620060200,17.65106005859375,0.5862779021263123,1.7653242349624634,-0.7181484699249268
1712835304640060200,17.67106005859375,0.437226802110672,0.2735912799835205,-0.42493313550949097
1712835304660060000,17.691059814453126,0.34376442432403564,-0.8894961476325989,-0.3723987340927124
1712835304680060000,17.711059814453126,0.22342395782470703,-1.044045090675354,-0.2978731691837311
1712835304700060200,17.73106005859375,0.04688390716910362,-0.3818671405315399,-0.15309810638427734
1712835304720060200,17.75106005859375,-0.1241583600640297,0.5680283308029175,0.01794416643679142
1712835304740060200,17.77106005859375,-0.2499966025352478,1.264414668083191,0.21158844232559204
1712835304760060200,17.79106005859375,-0.3208569586277008,1.381700873374939,0.3404810130596161
1712835304780060200,17.81106005859375,-0.34834590554237366,1.0145708322525024,0.46815183758735657
1712835304800060000,17.831059814453123,-0.40454551577568054,0.5503132343292236,0.6306419968605042
1712835304820060000,17.851059814453127,-0.4888449013233185,0.25526532530784607,0.790688693523407
1712835304840060000,17.871059814453126,-0.5578727126121521,0.11171197891235352,0.8597164750099182
1712835304860060000,17.891059814453126,-0.5871942043304443,0.16913332045078278,0.8273406028747559
1712835304880060000,17.911059814453125,-0.6360634565353394,0.34750595688819885,0.8310058116912842
1712835304900060000,17.931059814453125,-0.7203628420829773,0.5778021812438965,0.8810967803001404
1712835304920060000,17.951059814453124,-0.6495024561882019,0.3701079785823822,0.8749880790710449
1712835304940060000,17.971059814453124,-0.535881519317627,0.17585283517837524,0.8346710205078125
1712835304960060000,17.991059814453124,-0.40943244099617004,0.1373683214187622,0.5860488414764404
1712835304980060000,18.011059814453127,0.024892758578062057,0.877126157283783,0.19020816683769226
1712835305000060000,18.031059814453126,0.3877467215061188,2.5710554122924805,-0.16775886714458466
1712835305020060000,18.051059814453126,0.8306240439414978,3.468416452407837,-0.6986007690429688
1712835305040060000,18.071059814453125,1.2649492025375366,3.4751360416412354,-1.1860712766647339
1712835305060060200,18.09106005859375,1.533729910850525,3.043865203857422,-1.5483143329620361
1712835305080060200,18.11106005859375,1.7230981588363647,2.6235897541046143,-1.747456431388855
1712835305100060200,18.13106005859375,1.7182111740112305,1.9834030866622925,-1.9252182245254517
1712835305120060200,18.15106005859375,1.4915802478790283,2.24607515335083,-1.8745163679122925
1712835305140060200,18.17106005859375,1.0493137836456299,2.720717430114746,-2.3845889568328857
1712835305160060000,18.191059814453126,1.1391109228134155,2.7799713611602783,-2.2190444469451904
1712835305180060000,18.211059814453126,0.8165740966796875,2.0829741954803467,-1.2465468645095825
1712835305200060200,18.23106005859375,0.4787656366825104,0.34689509868621826,-0.9209557175636292
1712835305220060200,18.25106005859375,0.4335615932941437,-1.0666470527648926,-0.9832639694213867
1712835305240060200,18.27106005859375,0.25274550914764404,-0.8131380081176758,-0.6026949286460876
1712835305260060200,18.29106005859375,-0.020311269909143448,0.06345362961292267,-0.08773551881313324
1712835305280060200,18.31106005859375,-0.3856086730957031,0.8636870980262756,0.5261840224266052
1712835305300060000,18.331059814453123,-0.7625125646591187,1.0597748756408691,1.1132255792617798
1712835305320060000,18.351059814453127,-1.2945761680603027,0.047571130096912384,2.0637319087982178
1712835305340060000,18.371059814453126,-1.4448490142822266,-1.615204095840454,2.5481479167938232
1712835305360060000,18.391059814453126,-1.7857118844985962,-3.6897025108337402,2.6263387203216553
1712835305380060000,18.411059814453125,-2.132683277130127,-5.560171604156494,2.1804070472717285
1712835305400060000,18.431059814453125,-1.2450960874557495,-7.874129295349121,1.8725310564041138
1712835305420060000,18.451059814453124,-0.6140722632408142,-7.0683979988098145,1.6727781295776367
1712835305440060000,18.471059814453124,-0.2298380434513092,-2.483243465423584,1.6294066905975342
1712835305460060000,18.491059814453124,0.0377209298312664,1.0060187578201294,0.9544005990028381
1712835305480060000,18.511059814453127,0.32421672344207764,2.8502209186553955,0.2690097689628601
1712835305500060000,18.531059814453126,0.8721628785133362,2.2271382808685303,-0.5012912750244141
1712835305520060000,18.551059814453126,0.9601274728775024,0.8435285687446594,-0.870864748954773
1712835305540060000,18.571059814453125,1.0713049173355103,0.1880701333284378,-1.167134404182434
1712835305560060200,18.59106005859375,0.9344711303710938,0.061621032655239105,-1.3797155618667603
1712835305580060200,18.61106005859375,0.47998735308647156,-0.1198059469461441,-1.4731779098510742
1712835305600060200,18.63106005859375,0.6382014751434326,-0.0947604700922966,-1.510440707206726
1712835305620060200,18.65106005859375,0.7939720749855042,-0.33483052253723145,-1.252044677734375
1712835305640060200,18.67106005859375,0.6827946305274963,-0.8760571479797363,-0.8629235029220581
1712835305660060000,18.691059814453126,0.5771149396896362,-1.3256539106369019,-0.5819255113601685
1712835305680060000,18.711059814453126,0.48609602451324463,-1.5205199718475342,-0.5477170348167419
1712835305700060200,18.73106005859375,0.45982882380485535,-1.4453835487365723,-0.5110651254653931
1712835305720060200,18.75106005859375,0.3663664162158966,-0.995786726474762,-0.3333033621311188
1712835305740060200,18.77106005859375,0.19104810059070587,-0.3922518491744995,-0.04864014685153961
1712835305760060200,18.79106005859375,0.010842857882380486,-0.008017606101930141,0.09918924421072006
1712835305780060200,18.81106005859375,-0.14004085958003998,0.10499246418476105,0.11446087807416916
1712835305800060000,18.831059814453123,-0.24938572943210602,-0.10575604438781738,0.24640776216983795
1712835305820060000,18.851059814453127,-0.2347249686717987,-0.34521523118019104,0.3459787964820862
1712835305840060000,18.871059814453126,-0.1742493063211441,-0.4643339514732361,0.3557526469230652
1712835305860060000,18.891059814453126,-0.15714508295059204,-0.37453675270080566,0.3038291037082672
1712835305880060000,18.911059814453125,-0.19685132801532745,-0.049556441605091095,0.20547980070114136
1712835305900060000,18.931059814453125,-0.17791450023651123,0.21739166975021362,0.1981494128704071
1712835305920060000,18.951059814453124,-0.18707747757434845,0.21067215502262115,0.24701863527297974
1712835305940060000,18.971059814453124,-0.28725937008857727,0.06772968173027039,0.264122873544693
1712835305960060000,18.991059814453124,-0.3599523603916168,-0.041004329919815063,0.2800053656101227
1712835305980060000,19.011059814453127,-0.4069889783859253,-0.09048441797494888,0.3148246705532074
1712835306000060000,19.031059814453126,-0.4558582007884979,-0.00557414535433054,0.3753003478050232
1712835306020060000,19.051059814453126,-0.5248859524726868,0.13187053799629211,0.48831039667129517
1712835306040060000,19.071059814453125,-0.6831000447273254,0.2949715554714203,0.5958226919174194
1712835306060060200,19.09106005859375,-0.7954992651939392,0.3102431893348694,0.6123160719871521
1712835306080060200,19.11106005859375,-0.7881689071655273,0.2888629138469696,0.6404158473014832
1712835306100060200,19.13106005859375,-0.7716755270957947,0.2546544373035431,0.725937008857727
1712835306120060200,19.15106005859375,-0.8773552179336548,0.014584408141672611,0.8310058116912842
1712835306140060200,19.17106005859375,-1.078940749168396,-0.08620835840702057,0.9452376365661621
1712835306160060000,19.191059814453126,-1.165683627128601,-0.23831380903720856,0.9140834808349609
1712835306180060000,19.211059814453126,-1.1565206050872803,-0.22304217517375946,0.8432230949401855
1712835306200060200,19.23106005859375,-0.9720393419265747,-0.1955532431602478,0.857883870601654
1712835306220060200,19.25106005859375,-0.6940956115722656,0.023136520758271217,0.9116400480270386
1712835306240060200,19.27106005859375,-0.06490442901849747,0.5735260844230652,0.6117051839828491
1712835306260060200,19.29106005859375,0.7249443531036377,2.4702627658843994,-0.053527068346738815
1712835306280060200,19.31106005859375,1.4341589212417603,4.549647808074951,-0.39988765120506287
1712835306300060000,19.331059814453123,2.2295055389404297,4.806822299957275,-0.9899834990501404
1712835306320060000,19.351059814453127,2.607630968093872,4.3828816413879395,-1.1591931581497192
1712835306340060000,19.371059814453126,2.5978572368621826,3.8098902702331543,-1.031522274017334
1712835306360060000,19.391059814453126,2.3932173252105713,3.267441749572754,-1.0577895641326904
1712835306380060000,19.411059814453125,2.2514965534210205,4.042629718780518,-1.2483794689178467
1712835306400060000,19.431059814453125,1.6528486013412476,4.384714603424072,-1.482340931892395
1712835306420060000,19.451059814453124,1.1207849979400635,3.814777135848999,-1.0956631898880005
1712835306440060000,19.471059814453124,0.7518224120140076,2.036548376083374,-1.0089203119277954
1712835306460060000,19.491059814453124,0.5532912015914917,0.21128301322460175,-1.042517900466919
1712835306480060000,19.511059814453127,0.6974554061889648,-0.4038582742214203,-0.8403214812278748
1712835306500060000,19.531059814453126,0.6278167366981506,-0.4832707643508911,-0.25022566318511963
1712835306520060000,19.551059814453126,0.3663664162158966,-0.3482695519924164,0.15172365307807922
1712835306540060000,19.571059814453125,0.020005837082862854,-0.6225480437278748,0.48464521765708923
1712835306560060200,19.59106005859375,-0.32879820466041565,-1.211422085762024,0.7002806663513184
1712835306580060200,19.61106005859375,-0.6281222105026245,-1.9414061307907104,0.7967973351478577
1712835306600060200,19.63106005859375,-0.9421069025993347,-2.7391960620880127,0.970893919467926
1712835306620060200,19.65106005859375,-1.4045319557189941,-3.6041812896728516,1.1969140768051147
1712835306640060200,19.67106005859375,-2.099085807800293,-4.501542568206787,1.265941858291626
1712835306660060000,19.691059814453126,-2.7820329666137695,-5.118516445159912,0.8951466679573059
1712835306680060000,19.711059814453126,-2.7814221382141113,-5.551619529724121,0.6960045695304871
1712835306700060200,19.73106005859375,-2.4949264526367188,-5.4496049880981445,0.7479281425476074
1712835306720060200,19.75106005859375,-1.9310977458953857,-4.111199378967285,0.5518403649330139
1712835306740060200,19.77106005859375,-1.316567301750183,-2.513786792755127,0.019165897741913795
1712835306760060200,19.79106005859375,-0.9671524167060852,-1.3445907831192017,-0.17203491926193237
1712835306780060200,19.81106005859375,-0.3104722499847412,-1.4197272062301636,-0.1500437706708908
1712835306800060000,19.831059814453123,0.2716823220252991,-1.5535067319869995,-0.595364511013031
1712835306820060000,19.851059814453127,0.6644686460494995,-0.8381834626197815,-0.7902305722236633
1712835306840060000,19.871059814453126,0.792750358581543,0.17096590995788574,-0.929507851600647
1712835306860060000,19.891059814453126,0.792750358581543,1.0225120782852173,-1.1463650465011597
1712835306880060000,19.911059814453125,0.7664831876754761,1.5234215259552002,-1.271592378616333
1712835306900060000,19.931059814453125,0.6088799238204956,1.1898891925811768,-1.0278571844100952
1712835306920060000,19.951059814453124,0.4311181604862213,0.18073976039886475,-0.6381251215934753
1712835306940060000,19.971059814453124,0.2557998299598694,-0.7160104513168335,-0.2911536395549774
1712835306960060000,19.991059814453124,0.09453139454126358,-1.168050765991211,-0.1146135926246643
1712835306980060000,20.011059814453127,-0.11621711403131485,-1.0196104049682617,0.05032002553343773
1712835307000060000,20.031059814453126,-0.32757648825645447,-0.38003453612327576,0.15905404090881348
1712835307020060000,20.051059814453126,-0.432034432888031,0.3487277030944824,0.25679248571395874
1712835307040060000,20.071059814453125,-0.4668537676334381,0.8722392320632935,0.32276591658592224
1712835307060060200,20.09106005859375,-0.5297728776931763,1.0573313236236572,0.47487136721611023
1712835307080060000,20.111059814453125,-0.6910412907600403,0.9980774521827698,0.6666830778121948
1712835307100060000,20.131059814453124,-0.8657487630844116,0.7231881022453308,0.7992408275604248
1712835307120060000,20.151059814453124,-0.897513747215271,0.3646101951599121,0.8114581108093262
1712835307140060200,20.17106005859375,-0.9671524167060852,0.14103351533412933,0.868268609046936
1712835307160060000,20.191059814453126,-1.0245736837387085,0.19051359593868256,1.0063241720199585
1712835307180060000,20.211059814453126,-0.8468119502067566,0.2851977050304413,0.9605092406272888
1712835307200060200,20.23106005859375,-0.5823072791099548,0.1734093725681305,0.9562332034111023
1712835307220060200,20.25106005859375,-0.3459024429321289,0.330401748418808,0.8902597427368164
1712835307240060200,20.27106005859375,0.05054909735918045,0.877126157283783,0.7344890832901001
1712835307260060200,20.29106005859375,0.34926220774650574,1.419574499130249,0.3300963044166565
1712835307280060200,20.31106005859375,0.7976372838020325,3.1073951721191406,-0.02603813074529171
1712835307300060000,20.331059814453123,1.2741122245788574,4.4720683097839355,-0.4982369542121887
1712835307320060000,20.351059814453127,1.713935136795044,4.646775722503662,-1.2202796936035156
1712835307340059400,20.371059326171874,2.1281018257141113,3.552104949951172,-1.7126370668411255
1712835307360026000,20.391026123046874,1.969276785850525,2.6797895431518555,-1.7309629917144775
1712835307379992800,20.410992919921874,1.754252314567566,1.796478271484375,-1.6955327987670898
1712835307399959600,20.43095947265625,1.6840027570724487,2.583272695541382,-2.031508684158325
1712835307419926800,20.4509267578125,0.9778425693511963,3.1238884925842285,-1.8274797201156616
1712835307439893500,20.4708935546875,0.4922046661376953,3.279048204421997,-1.7553976774215698
1712835307459860200,20.490860107421874,0.5251913666725159,1.5741233825683594,-1.5446491241455078
1712835307479826000,20.510825927734373,0.23686300218105316,-0.22243130207061768,-1.2221122980117798
1712835307499792600,20.530792724609373,0.1745547503232956,-1.0770317316055298,-1.0370200872421265
1712835307519759000,20.550759033203125,0.11835514008998871,-1.204702615737915,-0.918512225151062
1712835307539725800,20.570725830078125,-0.11255192011594772,-0.2926807999610901,-0.5147303342819214
1712835307559692000,20.590692138671876,-0.23411411046981812,0.4360814392566681,-0.004046982154250145
1712835307579658800,20.61065869140625,-0.39354994893074036,0.37194058299064636,0.5322927236557007
1712835307599625500,20.63062548828125,-0.584750771522522,-0.2267073690891266,1.0606911182403564
1712835307619592200,20.65059228515625,-0.6898195743560791,-1.3439799547195435,1.4632513523101807
1712835307639558700,20.67055859375,-0.917061448097229,-2.7251462936401367,1.7631862163543701
1712835307659525000,20.690525146484376,-1.3709343671798706,-3.9242746829986572,1.9788216352462769
1712835307679492400,20.710492431640624,-1.9567540884017944,-5.144172668457031,1.5530484914779663
1712835307699458800,20.730458740234376,-2.4582743644714355,-5.833839416503906,1.254946231842041
1712835307719425500,20.750425537109376,-1.7942639589309692,-5.538180828094482,1.1449905633926392
1712835307739391700,20.770391845703124,-1.0648908615112305,-4.069660663604736,0.5371796488761902
1712835307759358500,20.7903583984375,-0.9915869832038879,-1.8155678510665894,0.34292447566986084
1712835307779325400,20.810325439453123,-0.4619668424129486,-0.4631122052669525,-0.04253149405121803
1712835307799292000,20.8302919921875,-0.16019940376281738,-1.4032338857650757,-0.373009592294693
1712835307819258400,20.85025830078125,0.1892155110836029,-1.9798905849456787,-0.6143013834953308
1712835307839225000,20.87022509765625,0.5398521423339844,-1.5932129621505737,-0.7376961708068848
1712835307859191800,20.89019189453125,0.7310529947280884,-0.9634108543395996,-0.8378780484199524
1712835307879158500,20.910158447265626,0.8623890280723572,-0.17722727358341217,-1.0058659315109253
1712835307899125000,20.930125,0.8923214077949524,0.6394995450973511,-1.080391526222229
1712835307919092000,20.950092041015626,0.8654433488845825,0.9204975366592407,-0.9777661561965942
1712835307939059200,20.97005908203125,0.7597636580467224,0.6407212615013123,-0.7786241173744202
1712835307959059200,20.99005908203125,0.6528622508049011,0.006032294128090143,-0.5593234896659851
1712835307979059200,21.01005908203125,0.527634859085083,-0.6213263273239136,-0.32902729511260986
1712835307999059200,21.03005908203125,0.3003929853439331,-0.7795404195785522,-0.14698944985866547
1712835308019058400,21.050058349609376,0.03833179548382759,-0.5077053904533386,0.015500705689191818
1712835308039058400,21.070058349609376,-0.2096794992685318,0.13125966489315033,0.1474476009607315
1712835308059058400,21.090058349609375,-0.3043636083602905,0.7677812576293945,0.24213171005249023
1712835308079059500,21.1100595703125,-0.29275718331336975,1.027398943901062,0.3759112060070038
1712835308099059500,21.1300595703125,-0.39538252353668213,0.9082802534103394,0.5225188732147217
1712835308119059500,21.1500595703125,-0.6293439269065857,0.4373031556606293,0.7015023827552795
1712835308139059500,21.1700595703125,-0.8706356883049011,-0.11430815607309341,0.8420013785362244
1712835308159060000,21.19006005859375,-0.9983065128326416,-0.4741078019142151,0.8902597427368164
1712835308179060000,21.21006005859375,-1.0355693101882935,-0.6005569100379944,0.9043096303939819
1712835308199060000,21.23006005859375,-1.030071496963501,-0.38614320755004883,0.9446267485618591
1712835308219060000,21.25006005859375,-1.0392345190048218,0.015806138515472412,0.971504807472229
1712835308239060000,21.27006005859375,-0.6244570016860962,0.3187952935695648,0.9281333684921265
1712835308259060000,21.29006005859375,-0.3349068760871887,0.46418121457099915,0.697226345539093
1712835308279060200,21.310060302734374,-0.40026944875717163,0.9137780666351318,0.39790233969688416
1712835308299060200,21.330060302734374,0.29367345571517944,2.4769821166992188,0.11873693019151688
1712835308319060200,21.350060302734374,1.471421718597412,3.789731740951538,-0.5709299445152283
1712835308339060200,21.370060302734377,1.8232800960540771,4.298582553863525,-1.2025645971298218
1712835308359060200,21.390060302734376,2.3962717056274414,3.8948004245758057,-1.4566845893859863
1712835308379060000,21.41006005859375,2.738966941833496,3.510566234588623,-1.510440707206726
1712835308399060000,21.43006005859375,2.512946844100952,3.057914972305298,-1.4664583206176758
1712835308419060200,21.450060302734375,2.2233967781066895,3.1886401176452637,-1.453019380569458
1712835308439060200,21.470060302734375,1.6919440031051636,3.3841171264648438,-1.8415296077728271
1712835308459060200,21.490060302734374,1.420719861984253,3.3028719425201416,-1.962480902671814
1712835308479060200,21.510060302734374,0.879493236541748,2.9485702514648438,-1.2263883352279663
1712835308499060200,21.530060302734373,0.5960517525672913,1.2363148927688599,-0.6992116570472717
1712835308519060000,21.55006005859375,0.385303258895874,-0.31467196345329285,-0.8097782135009766
1712835308539060000,21.57006005859375,0.28878653049468994,-0.7917577028274536,-0.6197991371154785
1712835308559060000,21.59006005859375,0.09208793938159943,-0.052610769867897034,-0.18791742622852325
1712835308579060000,21.61006005859375,-0.03130684420466423,0.5448154211044312,0.14133894443511963
1712835308599060000,21.63006005859375,-0.3208569586277008,0.3866013288497925,0.5023602843284607
1712835308619060000,21.65006005859375,-0.5951354503631592,-0.500985860824585,0.8817076086997986
1712835308639060000,21.67006005859375,-0.7582364678382874,-1.870545744895935,1.0906234979629517
1712835308659060000,21.69006005859375,-1.0978775024414062,-3.191847324371338,1.466916561126709
1712835308679060000,21.71006005859375,-1.545030951499939,-4.312174320220947,1.7595210075378418
1712835308699060000,21.73006005859375,-2.158339738845825,-5.135009765625,1.4528666734695435
1712835308719060000,21.75006005859375,-2.5444064140319824,-5.490533351898193,1.4498122930526733
1712835308739060000,21.77006005859375,-2.264630079269409,-4.934645652770996,1.2714396715164185
1712835308759060000,21.79006005859375,-1.8486309051513672,-3.3720524311065674,0.6886742115020752
1712835308779060200,21.810060302734374,-1.5248724222183228,-1.8290069103240967,0.19020816683769226
1712835308799060200,21.830060302734374,-1.1284208297729492,-0.4386776089668274,0.13584116101264954
1712835308819060200,21.850060302734374,-0.6152940392494202,-1.2266937494277954,-0.10606148093938828
1712835308839060200,21.870060302734377,-0.21762074530124664,-2.2639429569244385,-0.5000695586204529
1712835308859060200,21.890060302734376,0.2050980031490326,-1.9957730770111084,-0.7260897159576416
1712835308879060000,21.91006005859375,0.4573853611946106,-1.1845440864562988,-0.9007971882820129
1712835308899060000,21.93006005859375,0.4775438904762268,-0.17234036326408386,-1.0272462368011475
1712835308919060200,21.950060302734375,0.5477933883666992,0.7977136373519897,-1.223944902420044
1712835308939060200,21.970060302734375,0.6479753255844116,1.247921347618103,-1.2318861484527588
1712835308959060200,21.990060302734374,0.6174320578575134,0.9864709973335266,-0.9637162685394287
1712835308979060200,22.010060302734374,0.5245805382728577,0.09644035249948502,-0.6521750092506409
1712835308999060200,22.030060302734373,0.4225660264492035,-0.8070293664932251,-0.38644862174987793
1712835309019060000,22.05006005859375,0.24297164380550385,-1.1332314014434814,-0.18303050100803375
1712835309039060000,22.07006005859375,0.028557950630784035,-1.111240267753601,0.01794416643679142
1712835309059060000,22.09006005859375,-0.19562959671020508,-0.6207154393196106,0.18715384602546692
1712835309079060000,22.11006005859375,-0.38377609848976135,0.12454015016555786,0.27695104479789734
1712835309099060000,22.13006005859375,-0.4943426847457886,0.6785949468612671,0.3459787964820862
1712835309119060000,22.15006005859375,-0.5725334286689758,0.8795695900917053,0.4314999282360077
1712835309139060000,22.17006005859375,-0.6482807397842407,0.6724863052368164,0.525573194026947
1712835309159060000,22.19006005859375,-0.7038694620132446,0.1630246639251709,0.6556875109672546
1712835309179060000,22.21006005859375,-0.7698429226875305,-0.3983604907989502,0.7363216876983643
1712835309199060000,22.23006005859375,-0.745408296585083,-0.5797874927520752,0.7601454257965088
1712835309219060000,22.25006005859375,-0.6501133441925049,-0.5694027543067932,0.735710859298706
1712835309239060000,22.27006005859375,-0.6171266436576843,-0.19372063875198364,0.7198283076286316
1712835309259060000,22.29006005859375,-0.6256787180900574,0.09338602423667908,0.7320456504821777
1712835309279060200,22.310060302734374,-0.4766276180744171,-0.03672827407717705,0.7314347624778748
1712835309299060200,22.330060302734374,-0.19379699230194092,-0.20288361608982086,0.6850090026855469
1712835309319060200,22.350060302734374,-0.1498146951198578,0.27175867557525635,0.46448665857315063
1712835309339060200,22.370060302734377,0.15195272862911224,1.2638038396835327,0.2189188301563263
1712835309359060200,22.390060302734376,0.5820018649101257,2.637028932571411,-0.05474879592657089
1712835309379059700,22.410059814453124,1.0755809545516968,3.9674932956695557,-0.45547640323638916
1712835309399060000,22.43006005859375,1.4482088088989258,4.304690837860107,-0.9844856858253479
1712835309419060200,22.450060302734375,1.725541591644287,3.689549684524536,-1.4188108444213867
1712835309439060200,22.470060302734375,1.7163785696029663,2.966285228729248,-1.3913218975067139
1712835309459060200,22.490060302734374,1.4744759798049927,2.1837668418884277,-1.1445324420928955
1712835309479060200,22.510060302734374,1.4897476434707642,2.856940507888794,-1.5849661827087402
1712835309499060200,22.530060302734373,1.0089967250823975,2.8392252922058105,-2.0443367958068848
1712835309519059700,22.550059814453125,0.9442449808120728,2.307161569595337,-2.0687716007232666
1712835309539059700,22.570059814453124,0.6351471543312073,1.6510924100875854,-1.1976776123046875
1712835309559059700,22.590059814453124,0.275347501039505,0.15874861180782318,-0.6674466133117676
1712835309579059700,22.610059814453123,0.37308594584465027,-1.3629167079925537,-0.8201629519462585
1712835309599059700,22.630059814453126,0.23380866646766663,-1.0391581058502197,-0.5727625489234924
1712835309619059700,22.650059814453126,-0.0630718395113945,0.018249599263072014,-0.021151209250092506
1712835309639059700,22.670059814453126,-0.1235474944114685,0.5619196891784668,0.6752351522445679
1712835309659059700,22.690059814453125,-0.3116939961910248,0.21067215502262115,1.1969140768051147
1712835309679059700,22.710059814453125,-0.44058656692504883,-1.0611492395401,1.4229341745376587
1712835309699059700,22.730059814453124,-0.7240280508995056,-2.460641622543335,1.7851773500442505
1712835309719059700,22.750059814453124,-1.214552879333496,-4.119140625,1.6061937808990479
1712835309739059700,22.770059814453123,-1.602452278137207,-5.317047595977783,1.3160327672958374
1712835309759059700,22.790059814453127,-1.324508547782898,-5.316436767578125,1.4601969718933105
1712835309779060200,22.810060302734374,-0.9946413636207581,-4.026288986206055,0.9104182720184326
1712835309799060200,22.830060302734374,-1.1009318828582764,-1.4569900035858154,0.5267949104309082
1712835309819060200,22.850060302734374,-0.6910412907600403,0.42264237999916077,0.6789003610610962
1712835309839060200,22.870060302734377,-0.2952006161212921,0.1880701333284378,0.34842225909233093
1712835309859060200,22.890060302734376,0.0022907445672899485,-1.5968780517578125,-0.2673299014568329
1712835309879059700,22.910059814453124,0.1941024363040924,-1.7880789041519165,-0.7065420150756836
1712835309899059700,22.930059814453124,0.3816380500793457,-1.1497247219085693,-0.7364743947982788
1712835309919060200,22.950060302734375,0.47571131587028503,-0.5901721715927124,-0.834823727607727
1712835309939060200,22.970060302734375,0.6101016402244568,-0.11858421564102173,-0.9624945521354675
1712835309959060200,22.990060302734374,0.6998988389968872,0.2540435791015625,-0.9905943274497986
1712835309979060200,23.010060302734374,0.7127270102500916,0.2839759886264801,-0.8372671604156494
1712835309999060200,23.030060302734373,0.660803496837616,-0.03672827407717705,-0.6197991371154785
1712835310019059700,23.050059814453125,0.5740606188774109,-0.48632508516311646,-0.4322635233402252
1712835310039059700,23.070059814453124,0.43050727248191833,-0.5883395671844482,-0.301538348197937
1712835310059059700,23.090059814453124,0.25824329257011414,-0.34093916416168213,-0.1256091594696045
1712835310079059700,23.110059814453123,0.10064005106687546,0.0029779679607599974,0.04909829422831535
1712835310099059700,23.130059814453126,-0.10705413669347763,0.3505602777004242,0.18898643553256989
1712835310119059700,23.150059814453126,-0.30314189195632935,0.6315582990646362,0.3502548635005951
1712835310139059700,23.170059814453126,-0.4118759036064148,0.4709007441997528,0.46448665857315063
1712835310159059700,23.190059814453125,-0.5322163701057434,0.07628180086612701,0.5658903121948242
1712835310179059700,23.210059814453125,-0.6311765313148499,-0.2914590835571289,0.647746205329895
1712835310199059700,23.230059814453124,-0.77472984790802,-0.538859486579895,0.7735844850540161
1712835310219059700,23.250059814453124,-0.9188940525054932,-0.5840635299682617,0.8884271383285522
1712835310239059700,23.270059814453123,-0.9940304756164551,-0.500374972820282,0.9293550848960876
1712835310259059700,23.290059814453127,-0.9757044911384583,-0.5645158290863037,0.82917320728302
1712835310279060200,23.310060302734374,-0.8437576293945312,-0.2926807999610901,0.7350999712944031
1712835310299060200,23.330060302734374,-0.5700899958610535,0.31696268916130066,0.7381542921066284
1712835310319060200,23.350060302734374,-0.3813326358795166,1.0487792491912842,0.7192174792289734
1712835310339060200,23.370060302734377,-0.2096794992685318,1.7182875871658325,0.33742669224739075
1712835310359060200,23.390060302734376,0.1287398487329483,2.580829381942749,0.10835222154855728
1712835310379059700,23.410059814453124,0.7560984492301941,3.510566234588623,-0.22884538769721985
1712835310399059700,23.430059814453124,1.2166908979415894,3.943669557571411,-0.8555931448936462
1712835310419060200,23.450060302734375,1.371850609779358,3.9143481254577637,-1.4481323957443237
1712835310439060200,23.470060302734375,1.705383062362671,3.825772762298584,-1.5312100648880005
1712835310459060200,23.490060302734374,1.5318973064422607,3.7078757286071777,-1.7999907732009888
1712835310479060200,23.510060302734374,1.3773484230041504,4.246658802032471,-1.764560580253601
1712835310499060200,23.530060302734373,1.1061242818832397,4.075616359710693,-2.742555856704712
1712835310519059700,23.550059814453125,0.7060074806213379,3.2362875938415527,-1.7718909978866577
1712835310539059700,23.570059814453124,0.16783522069454193,1.1379655599594116,-0.6680575013160706
1712835310559059700,23.590059814453124,-0.041691552847623825,-1.402622938156128,-0.8598691821098328
1712835310579059700,23.610059814453123,0.23136521875858307,-2.1026744842529297,-0.8470410108566284
1712835310599059700,23.630059814453126,0.18860463798046112,-0.5700136423110962,-0.0492510087788105
1712835310619059700,23.650059814453126,-0.0734565481543541,0.9577603340148926,0.5506186485290527
1712835310639059700,23.670059814453126,-0.11133018881082535,1.5112042427062988,1.0044915676116943
1712835310659059700,23.690059814453125,-0.06979135423898697,1.029842495918274,1.371010661125183
1712835310679059700,23.710059814453125,-0.12721268832683563,0.03413209691643715,1.7705165147781372
1712835310699059700,23.730059814453124,-0.168751522898674,-1.1032990217208862,2.1834614276885986
1712835310719059700,23.750059814453124,-0.5096143484115601,-2.1833088397979736,2.521880865097046
1712835310739059700,23.770059814453123,-1.1088731288909912,-3.4618496894836426,2.2921955585479736
1712835310759059700,23.790059814453127,-1.5694655179977417,-5.122181415557861,1.7595210075378418
1712835310779060200,23.810060302734374,-1.8339701890945435,-6.925455570220947,0.5493969321250916
1712835310799060200,23.830060302734374,-2.5340218544006348,-8.76782512664795,0.21586450934410095
1712835310819060200,23.850060302734374,-1.5187636613845825,-8.048226356506348,0.761978030204773
1712835310839060200,23.870060302734377,0.21670444309711456,-4.356767177581787,0.6159812211990356
1712835310859060200,23.890060302734376,-0.35445454716682434,-1.5687782764434814,-1.4059827327728271
1712835310879059700,23.910059814453124,-0.3703370690345764,3.1580970287323,-1.0003682374954224
1712835310899059700,23.930059814453124,0.2509129047393799,4.910669326782227,-0.04375322163105011
1712835310919060200,23.950060302734375,0.03588833287358284,1.6333773136138916,-0.6100252866744995
1712835310939060200,23.970060302734375,0.44394633173942566,-0.538859486579895,-1.060843825340271
1712835310959060200,23.990060302734374,0.6742424964904785,-1.3757449388504028,-1.081613302230835
1712835310979060200,24.010060302734374,0.9570731520652771,-1.3048845529556274,-1.0736720561981201
1712835310999060200,24.030060302734373,1.238071084022522,-0.7996989488601685,-0.909349262714386
1712835311019059700,24.050059814453125,1.2918273210525513,-0.3714824318885803,-0.7248679995536804
1712835311039059700,24.070059814453124,1.1311696767807007,0.0671188160777092,-0.5324454307556152
1712835311059059700,24.090059814453124,0.8575021028518677,0.3346777856349945,-0.41454842686653137
1712835311079059700,24.110059814453123,0.6852380633354187,0.3132975101470947,-0.37484219670295715
1712835311099059700,24.130059814453126,0.5526803135871887,0.41409027576446533,-0.28993192315101624
1712835311119059700,24.150059814453126,0.44028112292289734,0.6633232831954956,-0.11339186131954193
1712835311139059700,24.170059814453126,0.3266601860523224,0.847193717956543,0.05581781268119812
1712835311159059700,24.190059814453125,0.1794416606426239,0.7775551080703735,0.13095423579216003
1712835311179059700,24.210059814453125,-0.005650503560900688,0.5044983625411987,0.1883755773305893
1712835311199059700,24.230059814453124,-0.23655757308006287,0.20578522980213165,0.33681583404541016
1712835311219059700,24.250059814453124,-0.45952337980270386,0.04512767121195793,0.5041928887367249
1712835311239059700,24.270059814453123,-0.6983717083930969,0.020693060010671616,0.5823836326599121
1712835311259059700,24.290059814453127,-0.897513747215271,0.13492485880851746,0.6312528848648071
1712835311279060200,24.310060302734374,-1.0563386678695679,0.34750595688819885,0.7894669771194458
1712835311299060200,24.330060302734374,-1.1436924934387207,0.38415786623954773,0.8786532878875732
1712835311319060200,24.350060302734374,-1.1785117387771606,0.20578522980213165,0.9208030104637146
1712835311339060200,24.370060302734377,-1.2078332901000977,-0.061162881553173065,0.9030879139900208
1712835311359060200,24.390060302734376,-0.9860892295837402,-0.3378848433494568,0.9641744494438171
1712835311379059700,24.410059814453124,-0.6067419052124023,-0.29390254616737366,1.0344239473342896
1712835311399059700,24.430059814453124,-0.3868304193019867,-0.040393464267253876,0.7149413824081421
1712835311419060200,24.450060302734375,0.14584407210350037,1.5374714136123657,0.3606395721435547
1712835311439060200,24.470060302734375,0.8837692737579346,4.093942642211914,-0.07796167582273483
1712835311459060200,24.490060302734374,1.532508134841919,4.879515171051025,-0.4377613067626953
1712835311479060200,24.510060302734374,2.087784767150879,4.516050338745117,-1.0119746923446655
1712835311499060200,24.530060302734373,2.216066360473633,3.9980366230010986,-1.3803263902664185
1712835311519059700,24.550059814453125,2.324800491333008,4.315075874328613,-1.5904639959335327
1712835311539059700,24.570059814453124,1.9081902503967285,4.804378986358643,-2.826855182647705
1712835311559059700,24.590059814453124,1.4408783912658691,4.334623336791992,-1.9954676628112793
1712835311579059700,24.610059814453123,0.5526803135871887,2.1355085372924805,-1.0351874828338623
1712835311599059700,24.630059814453126,-0.03191770985722542,-0.397138774394989,-1.319239854812622
1712835311619059700,24.650059814453126,0.10247264802455902,-0.7874816656112671,-1.1518627405166626
1712835311639059700,24.670059814453126,0.040164388716220856,-0.16195565462112427,-0.3980550765991211
1712835311659059700,24.690059814453125,-0.1437060534954071,0.9290496706962585,0.07903069257736206
1712835311679059700,24.710059814453125,-0.1547016203403473,0.7903832793235779,0.30138564109802246
1712835311699059700,24.730059814453124,-0.23167064785957336,-0.17905987799167633,0.6269767880439758
1712835311719059700,24.750059814453124,-0.451582133769989,-1.2847260236740112,1.187751054763794
1712835311739059700,24.770059814453123,-0.6391177773475647,-2.192471742630005,1.6251306533813477
1712835311759059700,24.790059814453127,-0.8797986507415771,-2.8839712142944336,1.7937294244766235
1712835311779060200,24.810060302734374,-1.3862059116363525,-3.456962823867798,1.9647717475891113
