time,seconds_elapsed,z,y,x
1712835553589575200,0.1015751953125,0.15166521072387695,-0.3360757827758789,0.04936182498931885
1712835553609575200,0.1215751953125,-0.11986398696899414,-0.3787999153137207,-0.016969919204711914
1712835553629575200,0.1415751953125,-0.02982807159423828,-0.2803158760070801,0.1414116621017456
1712835553649575200,0.1615751953125,0.05011701583862305,-0.2803363800048828,-0.17934250831604004
1712835553669575200,0.1815751953125,-0.06256294250488281,-0.3032093048095703,-0.1878056526184082
1712835553689575200,0.2015751953125,-0.23132085800170898,-0.18651628494262695,-0.03639101982116699
1712835553709575200,0.2215751953125,-0.36505126953125,-0.36058664321899414,0.4280545711517334
1712835553729575200,0.2415751953125,-0.8345155715942383,-0.42041969299316406,0.878630518913269
1712835553749575200,0.2615751953125,-1.1285772323608398,-0.3913912773132324,1.2233483791351318
1712835553769575200,0.2815751953125,-0.9816298484802246,-0.8430943489074707,2.0138092041015625
1712835553789575200,0.3015751953125,-1.2325844764709473,-0.028934955596923828,2.752889394760132
1712835553809575200,0.3215751953125,-0.03502845764160156,-0.47666120529174805,3.338465929031372
1712835553829575200,0.3415751953125,-0.49573516845703125,0.6269874572753906,5.489604949951172
1712835553849575200,0.3615751953125,-0.2224440574645996,-1.1692819595336914,4.588253021240234
1712835553869575200,0.3815751953125,-1.1156692504882812,-0.336334228515625,5.78436279296875
1712835553889575200,0.4015751953125,-1.7075824737548828,4.067223072052002,3.8433611392974854
1712835553909575200,0.4215751953125,-4.285530090332031,3.038461685180664,-0.5947830677032471
1712835553929575700,0.44157568359375,-2.2726922035217285,0.6758432388305664,-0.9538226127624512
1712835553949575700,0.46157568359375,-0.8552865982055664,-0.04665660858154297,1.3043971061706543
1712835553969575700,0.48157568359375,-0.018643856048583984,0.24021387100219727,2.4190502166748047
1712835553989575700,0.50157568359375,-0.02910137176513672,0.4424147605895996,1.8706985712051392
1712835554009575700,0.52157568359375,-0.09714460372924805,0.32433319091796875,0.6285891532897949
1712835554029575700,0.54157568359375,0.09031820297241211,0.1714787483215332,0.6018288135528564
1712835554049575700,0.56157568359375,-0.24612855911254883,0.2169651985168457,0.1464390754699707
1712835554069576000,0.581575927734375,-0.9002037048339844,1.8675804138183594,0.5676145553588867
1712835554089576000,0.601575927734375,-0.6809334754943848,1.6902523040771484,0.4670882225036621
1712835554109576000,0.621575927734375,-0.7373881340026855,1.584218978881836,-0.6601371765136719
1712835554129576000,0.641575927734375,-1.3976917266845703,0.6115388870239258,-2.886916399002075
1712835554149576000,0.661575927734375,-1.361203670501709,0.5807085037231445,-2.878296375274658
1712835554169576000,0.681575927734375,-1.0168404579162598,1.0611228942871094,-2.3222947120666504
1712835554189576000,0.701575927734375,0.060288429260253906,0.43741321563720703,-1.7762110233306885
1712835554209576000,0.721575927734375,0.14586400985717773,0.3244972229003906,-2.1250009536743164
1712835554229576000,0.741575927734375,0.259533166885376,-0.22945690155029297,-2.211087465286255
1712835554249576000,0.761575927734375,0.020877361297607422,-0.45661449432373047,-2.643596649169922
1712835554269576000,0.781575927734375,0.25548434257507324,-0.14487743377685547,-2.083895206451416
1712835554289576000,0.801575927734375,-0.16595888137817383,0.31521129608154297,-0.37112563848495483
1712835554309576000,0.821575927734375,0.18071389198303223,0.1002035140991211,0.3784567713737488
1712835554329576000,0.841575927734375,0.483304500579834,0.13621139526367188,0.736352264881134
1712835554351407600,0.86340771484375,0.6026196479797363,0.09193134307861328,0.6495095491409302
1712835554371407600,0.88340771484375,0.6060428619384766,1.106180191040039,-0.9684556126594543
1712835554391407600,0.90340771484375,0.7572944164276123,1.0576000213623047,-0.9771512746810913
1712835554411407600,0.92340771484375,0.7188935279846191,0.6073789596557617,-1.4047939777374268
1712835554431407900,0.943407958984375,0.995046854019165,0.06701278686523438,-1.1471664905548096
1712835554451408000,0.963407958984375,1.2143559455871582,-0.1695566177368164,-0.8325049877166748
1712835554471407900,0.983407958984375,0.985159158706665,-0.09374332427978516,-0.547053337097168
1712835554491408000,1.003407958984375,0.6471588611602783,0.21787071228027344,0.34415921568870544
1712835554511407900,1.023407958984375,0.7635884284973145,0.19094181060791016,0.27008894085884094
1712835554531407600,1.04340771484375,0.7554407119750977,0.36612796783447266,0.8452408313751221
1712835554551407600,1.06340771484375,0.05434763431549072,0.6897163391113281,-0.22344562411308289
1712835554571408000,1.083407958984375,0.09630060195922852,0.6819467544555664,-0.2592482566833496
1712835554591407900,1.103407958984375,0.10569679737091064,0.6734123229980469,-1.6623139381408691
1712835554611408000,1.123407958984375,0.08576011657714844,-0.07442855834960938,-1.3082157373428345
1712835554631407900,1.143407958984375,0.049567580223083496,-0.06798362731933594,-1.2447184324264526
1712835554651408000,1.163407958984375,-0.10712122917175293,-0.42609310150146484,-1.981818675994873
1712835554671407600,1.18340771484375,-1.1827152967453003,-0.577850341796875,-1.4508627653121948
1712835554691407600,1.20340771484375,-1.212659478187561,-0.5713605880737305,-1.425910472869873
1712835554711407600,1.22340771484375,-0.8876953125,-0.8478431701660156,-0.3881158232688904
1712835554731407600,1.24340771484375,-1.065496563911438,-1.0356101989746094,0.18470661342144012
1712835554751407600,1.26340771484375,-1.184891700744629,-1.2991371154785156,-0.24343037605285645
1712835554771407600,1.28340771484375,-1.6310919523239136,-1.0996856689453125,-1.0041027069091797
1712835554791407600,1.30340771484375,-1.7944872379302979,-1.1395750045776367,-2.121469497680664
1712835554811407600,1.32340771484375,-1.4755747318267822,-1.5812277793884277,-2.933713436126709
1712835554831407600,1.34340771484375,-1.4312686920166016,-1.5645575523376465,-2.662734270095825
1712835554851407600,1.36340771484375,-1.467363953590393,-2.425662040710449,-3.9693682193756104
1712835554871407600,1.38340771484375,-2.1111509799957275,-1.7663898468017578,-3.440904140472412
1712835554891407600,1.40340771484375,-2.044965982437134,-1.000493049621582,-2.8361778259277344
1712835554911407600,1.42340771484375,-2.7356839179992676,-0.5922374725341797,-2.0839827060699463
1712835554931408000,1.443407958984375,-4.2424397468566895,-0.24033260345458984,-0.9352073669433594
1712835554951407900,1.463407958984375,-3.7476696968078613,-0.09099578857421875,0.4689830541610718
1712835554971408000,1.483407958984375,-4.2693963050842285,-0.5677299499511719,2.349304676055908
1712835554991407900,1.503407958984375,-3.0852975845336914,-2.632049083709717,1.6547436714172363
1712835555011374600,1.52337451171875,-2.983680248260498,-2.639495372772217,1.6964361667633057
1712835555031340800,1.5433408203125,-4.543200492858887,-2.041036605834961,-0.0243527889251709
1712835555051307500,1.5633076171875,-4.455752372741699,-2.0269861221313477,0.10176384449005127
1712835555071274200,1.583274169921875,-2.4439730644226074,1.9821510314941406,3.049062728881836
1712835555091241000,1.603240966796875,-0.035729169845581055,3.684347152709961,3.976583480834961
1712835555111207400,1.62320751953125,1.721142053604126,3.653684616088867,3.51301908493042
1712835555131174100,1.643174072265625,1.6568410396575928,3.7130231857299805,3.7011351585388184
1712835555151141000,1.66314111328125,6.232247352600098,5.041569709777832,11.20004653930664
1712835555171107600,1.683107666015625,6.226263046264648,5.018520355224609,11.115874290466309
1712835555191074000,1.703073974609375,1.0744155645370483,5.948824882507324,8.571629524230957
1712835555211040800,1.723040771484375,1.0978634357452393,5.898543357849121,8.384882926940918
1712835555231007500,1.743007568359375,-1.8260295391082764,4.7274322509765625,-0.5432248115539551
1712835555250974200,1.76297412109375,-2.176842451095581,4.669866561889648,-3.1467106342315674
1712835555270941000,1.78294091796875,-1.806882619857788,4.034944534301758,-3.110538959503174
1712835555290907600,1.80290771484375,-1.9888554811477661,4.024326324462891,-3.4313364028930664
1712835555310874400,1.822874267578125,0.10677647590637207,4.122738838195801,-0.4994755983352661
1712835555330841000,1.842841064453125,-2.785686731338501,2.8365650177001953,0.6447438597679138
1712835555350807800,1.862807861328125,-2.7212183475494385,1.8540048599243164,-1.225119709968567
1712835555370774500,1.8827744140625,-2.334747314453125,1.6982507705688477,-2.1769707202911377
1712835555390741000,1.902740966796875,-2.5961270332336426,1.763627052307129,-2.244453191757202
1712835555410707700,1.922707763671875,-4.467250823974609,0.9329032897949219,-2.7884321212768555
1712835555430674400,1.94267431640625,-1.6705188751220703,1.3672075271606445,-3.8649680614471436
1712835555450641200,1.96264111328125,-1.0660080909729004,0.48910999298095703,-5.564899921417236
1712835555470608000,1.98260791015625,-3.266204833984375,-1.2642183303833008,-8.329898834228516
1712835555490574300,2.00257421875,-5.541519641876221,-2.849730968475342,-8.378229141235352
1712835555510541000,2.022541015625,-4.8754754066467285,-2.570859909057617,-4.588689804077148
1712835555530507500,2.042507568359375,-4.215550899505615,-2.905348300933838,-2.7777671813964844
1712835555550474200,2.06247412109375,-4.016681671142578,-4.353554725646973,-1.2277116775512695
1712835555570440700,2.082440673828125,-4.300913333892822,-5.575457572937012,0.4843953847885132
1712835555590407400,2.102407470703125,-4.053004264831543,-5.976325988769531,1.7113909721374512
1712835555610407400,2.122407470703125,-2.9881558418273926,-5.957217216491699,1.6519887447357178
1712835555630407400,2.142407470703125,-2.460775852203369,-5.955572128295898,1.1534068584442139
1712835555650407700,2.16240771484375,-2.3620972633361816,-6.017021179199219,0.7542873620986938
1712835555670407700,2.18240771484375,-3.5700435638427734,-3.2176809310913086,0.21299713850021362
1712835555690407700,2.20240771484375,-3.8017120361328125,-3.5991859436035156,-1.1287574768066406
1712835555710407700,2.22240771484375,-2.22055983543396,-4.5999040603637695,-2.3193671703338623
1712835555730407700,2.24240771484375,-0.3562631607055664,-3.5054945945739746,-2.9502992630004883
1712835555750407400,2.262407470703125,-0.5827608108520508,-1.6355443000793457,-6.1617608070373535
1712835555770407400,2.282407470703125,-2.8029754161834717,-0.14284801483154297,-6.860328674316406
1712835555790407700,2.30240771484375,-4.342606544494629,1.4636154174804688,-4.70463228225708
1712835555810407700,2.32240771484375,-5.558795928955078,4.1694536209106445,0.06762075424194336
1712835555830407700,2.34240771484375,-6.234118938446045,6.090394020080566,6.439046382904053
1712835555850407700,2.36240771484375,-7.392426490783691,7.2525529861450195,14.772148132324219
1712835555870407700,2.38240771484375,-7.045573711395264,6.601174354553223,20.25936508178711
1712835555890407400,2.402407470703125,-1.8434871435165405,4.771235466003418,18.37781524658203
1712835555910407400,2.422407470703125,1.5596601963043213,3.3726425170898438,13.321767807006836
1712835555930407400,2.442407470703125,3.777541160583496,2.817437171936035,7.873960494995117
1712835555950407400,2.462407470703125,4.439578056335449,3.2958145141601562,2.899156332015991
1712835555970407400,2.482407470703125,1.9129679203033447,3.8876495361328125,-1.1809977293014526
1712835555990407400,2.502407470703125,1.799025058746338,3.948394775390625,-1.5021306276321411
1712835556010407400,2.522407470703125,-0.9158296585083008,2.0781679153442383,-0.62314772605896
1712835556030407400,2.542407470703125,-1.0757015943527222,2.1285924911499023,-0.868596076965332
1712835556050407400,2.562407470703125,-0.24147915840148926,1.1273460388183594,-0.3207893371582031
1712835556070407400,2.582407470703125,-1.4598984718322754,0.2809934616088867,-1.1142261028289795
1712835556090407400,2.602407470703125,-1.6237305402755737,0.31958770751953125,-1.2698328495025635
1712835556110407400,2.622407470703125,-0.9555444717407227,-1.8160405158996582,1.3146271705627441
1712835556130407400,2.642407470703125,-1.0989043712615967,-1.7656044960021973,1.1633062362670898
1712835556150407700,2.66240771484375,0.11208176612854004,-1.202134132385254,0.2544364929199219
1712835556170407700,2.68240771484375,-0.7216095328330994,-0.4945526123046875,-0.6014440059661865
1712835556190407700,2.70240771484375,-1.6294575929641724,-0.4065876007080078,-1.2377121448516846
1712835556210407700,2.72240771484375,-2.6434786319732666,-0.7029199600219727,-0.8289272785186768
1712835556230407700,2.74240771484375,-2.74385666847229,-0.7037181854248047,-0.8326122760772705
1712835556250407400,2.762407470703125,-1.5190143585205078,-1.83207368850708,-0.10351800918579102
1712835556270407400,2.782407470703125,-1.5318706035614014,-1.8704800605773926,-0.027193546295166016
1712835556290407700,2.80240771484375,-0.5232222080230713,-2.715700149536133,-0.014743804931640625
1712835556310407700,2.82240771484375,-0.42975425720214844,-2.829988479614258,-0.5334141254425049
1712835556330407700,2.84240771484375,-0.5559040307998657,-2.6029491424560547,-1.0199623107910156
1712835556350407700,2.86240771484375,-0.7660484313964844,-2.018387794494629,-1.3675320148468018
1712835556370407700,2.88240771484375,-0.6748077869415283,-2.0860776901245117,-1.1976244449615479
1712835556390407400,2.902407470703125,-1.427049160003662,-1.4810819625854492,-0.683197021484375
1712835556410407400,2.922407470703125,-1.2674806118011475,-1.5432662963867188,-0.48899245262145996
1712835556430407400,2.942407470703125,-1.1922082901000977,-1.4955248832702637,0.9367637634277344
1712835556450407400,2.962407470703125,-1.0260729789733887,-1.544309139251709,1.1376302242279053
1712835556470407400,2.982407470703125,-2.0105795860290527,5.137896537780762,4.4820709228515625
1712835556490407400,3.002407470703125,-2.372053623199463,5.915450096130371,7.11238431930542
1712835556510407400,3.022407470703125,3.7703285217285156,3.8452844619750977,9.246989250183105
1712835556530407400,3.042407470703125,5.630274772644043,3.2571048736572266,12.199058532714844
1712835556550407400,3.062407470703125,2.0467844009399414,3.6910295486450195,11.469218254089355
1712835556570407400,3.082407470703125,-4.1636810302734375,6.220593452453613,5.748068332672119
1712835556590407400,3.102407470703125,-6.800065517425537,8.067790031433105,-2.7741429805755615
1712835556610407400,3.122407470703125,-5.391911029815674,4.363953590393066,-5.638288974761963
1712835556630407400,3.142407470703125,-3.132002353668213,1.9391365051269531,-1.9611847400665283
1712835556650407700,3.16240771484375,5.7634687423706055,1.1152467727661133,-0.10128545761108398
1712835556670407700,3.18240771484375,7.011865615844727,-2.4067306518554688,-9.698524475097656
1712835556690407700,3.20240771484375,6.474852561950684,-2.3701982498168945,-9.509225845336914
1712835556710407700,3.22240771484375,-8.740241050720215,-0.39690303802490234,-7.500664234161377
1712835556730407700,3.24240771484375,-6.194771766662598,-3.635596752166748,-3.6415181159973145
1712835556750407400,3.262407470703125,-5.285203456878662,-6.053182601928711,1.9103436470031738
1712835556770407400,3.282407470703125,-5.2483110427856445,-6.015181541442871,1.8060483932495117
1712835556790407700,3.30240771484375,-4.946321964263916,-4.534439563751221,-1.2338275909423828
1712835556810407700,3.32240771484375,-5.262738227844238,-1.9884533882141113,-5.11956262588501
1712835556830407700,3.34240771484375,-4.964730262756348,-2.0354323387145996,-5.189635753631592
1712835556850407700,3.36240771484375,-4.011233329772949,1.0227937698364258,-9.897928237915039
1712835556870407700,3.38240771484375,-3.2192466259002686,2.176650047302246,-8.956024169921875
1712835556890407400,3.402407470703125,-2.4095911979675293,4.332528114318848,-8.062355995178223
1712835556910407400,3.422407470703125,-1.646748423576355,4.224471092224121,-7.858772277832031
1712835556930407400,3.442407470703125,-2.5688037872314453,5.448019981384277,-6.3301191329956055
1712835556950407400,3.462407470703125,-1.5712121725082397,5.101162910461426,7.3622636795043945
1712835556970407400,3.482407470703125,-1.2274854183197021,2.5616626739501953,15.117208480834961
1712835556990407400,3.502407470703125,-5.319303035736084,1.1895513534545898,17.0440616607666
1712835557010407400,3.522407470703125,-3.6332480907440186,2.989182472229004,12.920574188232422
1712835557030407400,3.542407470703125,3.676971435546875,2.17824649810791,8.529664039611816
1712835557050407400,3.562407470703125,3.5616748332977295,2.1803884506225586,8.399648666381836
1712835557070407400,3.582407470703125,5.505064964294434,3.111785888671875,-1.0920376777648926
1712835557090407400,3.602407470703125,5.219712257385254,3.107563018798828,-1.3059909343719482
1712835557110407400,3.622407470703125,-1.708085536956787,1.0420646667480469,-3.6537609100341797
1712835557130407400,3.642407470703125,-1.5478943586349487,-0.8683977127075195,-2.138991355895996
1712835557150407700,3.66240771484375,-1.766823172569275,-1.3309626579284668,-0.8792164325714111
1712835557170407700,3.68240771484375,-1.9090032577514648,-1.3371453285217285,-0.9183042049407959
1712835557190407700,3.70240771484375,-1.5298843383789062,-1.2215075492858887,0.027945518493652344
1712835557210407700,3.72240771484375,-0.8979083299636841,-2.2922940254211426,1.1015057563781738
1712835557230407700,3.74240771484375,-1.0202958583831787,-2.276463031768799,1.0276095867156982
1712835557250407400,3.762407470703125,-1.0340524911880493,-2.756089687347412,1.4278414249420166
1712835557270407400,3.782407470703125,-1.5952191352844238,-1.9063119888305664,-0.19906997680664062
1712835557290407700,3.80240771484375,-1.7052150964736938,-1.9378604888916016,-0.14249944686889648
1712835557310407700,3.82240771484375,-1.5193374156951904,-1.1815195083618164,-0.8404080867767334
1712835557330407700,3.84240771484375,-1.6536376476287842,-1.9091010093688965,-0.2756061553955078
1712835557350407700,3.86240771484375,-1.4900020360946655,-3.1167969703674316,0.5091376304626465
1712835557370407700,3.88240771484375,-0.7081876993179321,-4.218621253967285,1.2510693073272705
1712835557390407400,3.902407470703125,-0.08878767490386963,-4.4531168937683105,1.643354892730713
1712835557410407400,3.922407470703125,-0.2180585265159607,-3.4827733039855957,1.6191041469573975
1712835557430407400,3.942407470703125,-0.08127892017364502,-3.521515369415283,1.81697678565979
1712835557450407400,3.962407470703125,-3.6607038974761963,8.65192985534668,6.878155708312988
1712835557470407400,3.982407470703125,0.39370471239089966,4.549252510070801,9.484965324401855
1712835557490407400,4.002407470703125,6.562612533569336,2.623025894165039,11.4202880859375
1712835557510407400,4.022407470703125,4.199454307556152,4.418337821960449,11.994156837463379
1712835557530407400,4.042407470703125,-1.729107141494751,6.421072959899902,8.516132354736328
1712835557550407400,4.062407470703125,-2.178361654281616,6.541391372680664,8.113842010498047
1712835557570407400,4.082407470703125,-4.659644603729248,6.604196548461914,-4.5916337966918945
1712835557590407400,4.102407470703125,4.301531791687012,4.782075881958008,-0.15074777603149414
1712835557610407400,4.122407470703125,7.993501663208008,1.7886056900024414,-0.940072774887085
1712835557630407400,4.142407470703125,-2.861564874649048,-1.7692360877990723,-5.5621867179870605
1712835557650407700,4.16240771484375,-8.26395034790039,-1.0501036643981934,-9.516402244567871
1712835557670407700,4.18240771484375,-7.324974060058594,-1.8254117965698242,-5.901349067687988
1712835557690407700,4.20240771484375,-7.452332019805908,-1.7514066696166992,-5.960351943969727
1712835557710407700,4.22240771484375,-5.231532096862793,-2.2939858436584473,0.02977132797241211
1712835557730407700,4.24240771484375,-2.8976316452026367,-6.251891136169434,1.9114317893981934
1712835557750407400,4.262407470703125,-4.20937442779541,-2.2272696495056152,0.14215326309204102
1712835557770407400,4.282407470703125,-4.25263786315918,-2.207240581512451,0.1369919776916504
1712835557790407700,4.30240771484375,-3.6974990367889404,-2.168999671936035,-4.849884986877441
1712835557810407700,4.32240771484375,-3.2789711952209473,-2.729158401489258,-4.620517253875732
1712835557830407700,4.34240771484375,-3.279134750366211,-2.3434104919433594,-5.214305877685547
1712835557850407700,4.36240771484375,-3.244182586669922,-1.794846534729004,-6.203813076019287
1712835557870407700,4.38240771484375,-2.8030993938446045,-1.8067693710327148,-6.381715297698975
1712835557890407400,4.402407470703125,-1.5852056741714478,-0.9192080497741699,-6.841155529022217
1712835557910407400,4.422407470703125,-4.4807000160217285,2.402726173400879,-10.977378845214844
1712835557930407400,4.442407470703125,-3.1816563606262207,2.588881492614746,-9.777645111083984
1712835557950407400,4.462407470703125,-3.3127646446228027,4.636161804199219,-9.50506591796875
1712835557970407400,4.482407470703125,-7.305658340454102,6.576292991638184,-6.776734352111816
1712835557990407400,4.502407470703125,-8.644280433654785,7.705707550048828,4.477716445922852
1712835558010407400,4.522407470703125,-8.113006591796875,7.552947998046875,5.252280235290527
1712835558030407400,4.542407470703125,-1.4116153717041016,1.1627826690673828,20.448484420776367
1712835558050407400,4.562407470703125,-2.5455572605133057,2.0066614151000977,18.710973739624023
1712835558070407400,4.582407470703125,2.8230738639831543,2.537443161010742,13.651607513427734
1712835558090407400,4.602407470703125,6.037726879119873,1.7115516662597656,7.6353678703308105
1712835558110407400,4.622407470703125,4.613208293914795,2.668487548828125,0.18784308433532715
1712835558130407400,4.642407470703125,-0.43751072883605957,4.597113609313965,-4.339453220367432
1712835558150407700,4.66240771484375,-0.7089827060699463,4.610325813293457,-4.635339736938477
1712835558170407700,4.68240771484375,-1.4413070678710938,-0.8715934753417969,-3.6164662837982178
1712835558190407700,4.70240771484375,-1.6298978328704834,-0.8917627334594727,-3.687869071960449
1712835558210407700,4.72240771484375,-0.46091246604919434,-2.0489368438720703,1.0111751556396484
1712835558230407700,4.74240771484375,-0.5448963642120361,-2.046036720275879,0.9541082382202148
1712835558250407400,4.762407470703125,-0.3509286642074585,-1.5926814079284668,2.132756471633911
1712835558270407400,4.782407470703125,0.31901705265045166,-1.2614693641662598,2.497926950454712
1712835558290407700,4.80240771484375,-1.0429805517196655,-1.8536186218261719,1.3549396991729736
1712835558310407700,4.82240771484375,-1.3914687633514404,-1.7067689895629883,-0.35926318168640137
1712835558330407700,4.84240771484375,-1.3946393728256226,-1.5353026390075684,-1.204183578491211
1712835558350407700,4.86240771484375,-0.8627235889434814,-1.9664068222045898,-1.139775037765503
1712835558370407700,4.88240771484375,-0.47343528270721436,-2.3826489448547363,-0.4573495388031006
1712835558390407400,4.902407470703125,-0.4672519564628601,-2.407681941986084,-0.3945002555847168
1712835558410407400,4.922407470703125,0.017505884170532227,-2.327864646911621,0.46993565559387207
1712835558430407400,4.942407470703125,-0.1759653091430664,-2.2673025131225586,0.600508451461792
1712835558450407400,4.962407470703125,-0.2581195831298828,-2.3625473976135254,0.6916203498840332
1712835558470407400,4.982407470703125,-0.21127748489379883,-2.4243950843811035,0.8872208595275879
1712835558490407400,5.002407470703125,-0.44365739822387695,-1.9071087837219238,0.9091408252716064
1712835558510407400,5.022407470703125,-0.2735168933868408,-0.6786355972290039,1.1017889976501465
1712835558530407400,5.042407470703125,-1.3003733158111572,2.66580867767334,3.475820541381836
1712835558550407400,5.062407470703125,-1.1857846975326538,5.6756086349487305,6.888731479644775
1712835558570407400,5.082407470703125,5.426364898681641,3.068582534790039,10.003207206726074
1712835558590407400,5.102407470703125,7.339306354522705,1.293950080871582,11.052268981933594
1712835558610407400,5.122407470703125,3.047834634780884,3.990591049194336,9.741941452026367
1712835558630407400,5.142407470703125,-0.8146595358848572,5.339707374572754,5.136351585388184
1712835558650407700,5.16240771484375,-1.4101264476776123,6.088393211364746,-0.06987619400024414
1712835558670407700,5.18240771484375,-1.772578239440918,5.425798416137695,-4.011673450469971
1712835558690407700,5.20240771484375,-5.102133750915527,2.3832902908325195,-4.777944087982178
1712835558710407700,5.22240771484375,-0.5064437389373779,0.944972038269043,-2.412055015563965
1712835558730407700,5.24240771484375,6.857699394226074,0.023726463317871094,-0.6750569343566895
1712835558750407400,5.262407470703125,1.192401647567749,-3.132411479949951,-3.4870872497558594
1712835558770407400,5.282407470703125,-5.538173675537109,-2.7029824256896973,-8.09586238861084
1712835558790407700,5.30240771484375,-6.681183815002441,-1.0025014877319336,-9.515528678894043
1712835558810407700,5.32240771484375,-5.200891017913818,-1.622685432434082,-5.410863876342773
1712835558830407700,5.34240771484375,-4.846065521240234,-0.9674687385559082,-0.3095722198486328
1712835558850407700,5.36240771484375,-4.736218452453613,-3.032533645629883,1.0202772617340088
1712835558870407700,5.38240771484375,-4.97456693649292,-3.7589187622070312,1.2089273929595947
1712835558890407400,5.402407470703125,-5.972931861877441,-2.7733278274536133,1.0659699440002441
1712835558910407400,5.422407470703125,-6.4071760177612305,-2.127833366394043,-0.031937360763549805
1712835558930407400,5.442407470703125,-5.914621829986572,-1.5337443351745605,-1.115944743156433
1712835558950407400,5.462407470703125,-4.897501468658447,-1.0117535591125488,-1.8756396770477295
1712835558970407400,5.482407470703125,-3.3772387504577637,-0.08568382263183594,-3.3295347690582275
1712835558990407400,5.502407470703125,-1.9162774085998535,1.3419294357299805,-5.698016166687012
1712835559010407400,5.522407470703125,-0.7459486722946167,2.319704055786133,-7.815130233764648
1712835559030407400,5.542407470703125,-2.2662668228149414,3.710714340209961,-9.124076843261719
1712835559050407400,5.562407470703125,-5.248780727386475,5.737283706665039,-7.903324604034424
1712835559070407400,5.582407470703125,-5.302709579467773,6.01413631439209,-2.408324956893921
1712835559090407400,5.602407470703125,-5.182591438293457,4.021832466125488,4.499842643737793
1712835559110407400,5.622407470703125,-4.430232048034668,1.7147674560546875,15.37672233581543
1712835559130407400,5.642407470703125,-2.078922986984253,2.0910139083862305,25.531295776367188
1712835559150407700,5.66240771484375,-1.794626235961914,2.144808769226074,25.654678344726562
1712835559170407700,5.68240771484375,1.2139374017715454,0.3238229751586914,18.973222732543945
1712835559190407700,5.70240771484375,4.924543857574463,1.0192241668701172,6.3844828605651855
1712835559210407700,5.72240771484375,5.236980438232422,3.2192821502685547,0.5375494956970215
1712835559230407700,5.74240771484375,1.9461584091186523,5.350140571594238,-4.676800727844238
1712835559250407400,5.762407470703125,1.6509073972702026,5.371225357055664,-4.9916839599609375
1712835559270407400,5.782407470703125,-0.17516839504241943,0.8889627456665039,-3.1688385009765625
1712835559290407700,5.80240771484375,0.7291714549064636,-0.26320743560791016,-1.2086224555969238
1712835559310407700,5.82240771484375,-0.33716070652008057,-1.3225040435791016,-0.053705692291259766
1712835559330407700,5.84240771484375,-1.9933284521102905,-1.9463276863098145,0.07099127769470215
1712835559350407700,5.86240771484375,-2.2276082038879395,-1.921130657196045,-0.0211026668548584
1712835559370407700,5.88240771484375,-2.4395594596862793,-1.8503360748291016,1.1441025733947754
1712835559390407400,5.902407470703125,-1.7691271305084229,-2.162330150604248,2.1026580333709717
1712835559410407400,5.922407470703125,-1.3047006130218506,-2.4261484146118164,2.3186495304107666
1712835559430407400,5.942407470703125,-1.422484040260315,-2.4176292419433594,2.309673547744751
1712835559450407400,5.962407470703125,-2.444063425064087,-2.2742600440979004,-0.2630946636199951
1712835559470407400,5.982407470703125,-2.428283214569092,-2.311577796936035,-0.7575535774230957
1712835559490407400,6.002407470703125,-1.949995756149292,-2.5636672973632812,-0.6794681549072266
1712835559510407400,6.022407470703125,-1.3429617881774902,-2.953256130218506,-0.40326404571533203
1712835559530407400,6.042407470703125,-0.48727238178253174,-3.019845485687256,-0.15237140655517578
1712835559550407400,6.062407470703125,-0.7211553454399109,-2.766414165496826,0.025597810745239258
1712835559570407400,6.082407470703125,-0.5359385013580322,-2.827181339263916,0.22773075103759766
1712835559590407400,6.102407470703125,-1.4556708335876465,2.02880859375,1.5463638305664062
1712835559610407400,6.122407470703125,-1.7323156595230103,5.256584167480469,4.795266151428223
1712835559630407400,6.142407470703125,2.3545706272125244,4.233705520629883,8.577200889587402
1712835559650407700,6.16240771484375,5.916936874389648,2.9962902069091797,11.532747268676758
1712835559670407700,6.18240771484375,5.756165504455566,3.02132511138916,11.40424633026123
1712835559690407700,6.20240771484375,-0.027737610042095184,6.226283073425293,10.277742385864258
1712835559710407700,6.22240771484375,-2.234649419784546,8.050728797912598,3.366474151611328
1712835559730407700,6.24240771484375,-3.4266586303710938,8.086997985839844,-2.126310110092163
1712835559750407400,6.262407470703125,-1.9332096576690674,5.126485824584961,-3.1781694889068604
1712835559770407400,6.282407470703125,-2.4079859256744385,5.285431861877441,-3.373950958251953
1712835559790407700,6.30240771484375,0.21258902549743652,-1.1074914932250977,-3.585157632827759
1712835559810407700,6.32240771484375,-0.3422362804412842,-0.9580364227294922,-3.5395777225494385
1712835559830407700,6.34240771484375,1.4800689220428467,-1.4478507041931152,-4.330352783203125
1712835559850407700,6.36240771484375,0.921605110168457,-1.3059725761413574,-4.034782409667969
1712835559870407700,6.38240771484375,-7.378005027770996,-0.3640718460083008,-10.14091682434082
1712835559890407400,6.402407470703125,-7.5916924476623535,-2.1678762435913086,-5.698624610900879
1712835559910407400,6.422407470703125,-5.828801155090332,-4.844325542449951,1.1538615226745605
1712835559930407400,6.442407470703125,-4.810592174530029,-6.437067985534668,3.634542942047119
1712835559950407400,6.462407470703125,-5.604793071746826,-5.5070905685424805,2.005417823791504
1712835559970407400,6.482407470703125,-6.452258110046387,-2.7521605491638184,0.06883597373962402
1712835559990407400,6.502407470703125,-6.403375625610352,-1.8033180236816406,-1.7850663661956787
1712835560010407400,6.522407470703125,-5.470089912414551,-2.142001152038574,-2.4875667095184326
1712835560030407400,6.542407470703125,-4.361513137817383,-1.8528361320495605,-3.222595691680908
1712835560050407400,6.562407470703125,-3.868035078048706,-1.9774069786071777,-3.4717774391174316
1712835560070407400,6.582407470703125,-0.7963738441467285,2.6237611770629883,-7.70697546005249
1712835560090407400,6.602407470703125,-1.5075277090072632,4.099071502685547,-9.25712776184082
1712835560110407400,6.622407470703125,-3.1336896419525146,5.402339935302734,-8.534433364868164
1712835560130407400,6.642407470703125,-4.898634433746338,5.944745063781738,-5.704165458679199
1712835560150407700,6.66240771484375,-5.255610942840576,3.8297643661499023,-1.44000244140625
1712835560170407700,6.68240771484375,-4.6082258224487305,3.740865707397461,-0.9797096252441406
1712835560190407700,6.70240771484375,-5.476104736328125,2.885913848876953,27.425722122192383
1712835560210407700,6.72240771484375,-1.4491112232208252,0.7687063217163086,23.302719116210938
1712835560230407700,6.74240771484375,-1.2272043228149414,0.8270597457885742,23.27845001220703
1712835560250407400,6.762407470703125,7.223920822143555,0.7349758148193359,7.470945835113525
1712835560270407400,6.782407470703125,6.44083309173584,4.792149543762207,-0.5852086544036865
1712835560290407700,6.80240771484375,1.9366183280944824,6.449390411376953,-7.715091228485107
1712835560310407700,6.82240771484375,-0.12957417964935303,2.8333873748779297,-7.455362319946289
1712835560330407700,6.84240771484375,-0.5006433129310608,2.862626075744629,-7.657684326171875
1712835560350407700,6.86240771484375,-0.3109869956970215,-0.047720909118652344,-0.529212474822998
1712835560370407700,6.88240771484375,-0.9071905612945557,-1.4929242134094238,0.9803922176361084
1712835560390407400,6.902407470703125,-2.846768856048584,-1.6670889854431152,1.507176160812378
1712835560410407400,6.922407470703125,-3.2807137966156006,-1.3676862716674805,1.6242189407348633
1712835560430407400,6.942407470703125,-1.9161957502365112,-1.6647138595581055,2.33188796043396
1712835560450407400,6.962407470703125,-1.2708070278167725,-2.161372661590576,2.8220667839050293
1712835560470407400,6.982407470703125,-1.5989766120910645,-2.5503506660461426,1.8984761238098145
1712835560490407400,7.002407470703125,-1.787219524383545,-2.5150771141052246,1.8604865074157715
1712835560510407400,7.022407470703125,-2.454564094543457,-2.910935401916504,-0.9198086261749268
1712835560530407400,7.042407470703125,-2.3805692195892334,-2.5720038414001465,-1.5490553379058838
1712835560550407400,7.062407470703125,-1.8037021160125732,-2.2533016204833984,-1.5954866409301758
1712835560570407400,7.082407470703125,-1.6133224964141846,-1.9168095588684082,-1.1267452239990234
1712835560590407400,7.102407470703125,-1.73738694190979,-1.9242792129516602,-0.8237152099609375
1712835560610407400,7.122407470703125,-1.5470777750015259,-2.360258102416992,-0.4048793315887451
1712835560630407400,7.142407470703125,-1.2022838592529297,-2.509139060974121,0.18584012985229492
1712835560650407700,7.16240771484375,-0.9769202470779419,-2.588338851928711,0.3590855598449707
1712835560670407700,7.18240771484375,-0.5966749787330627,-2.7071118354797363,0.49239039421081543
1712835560690407700,7.20240771484375,-0.5589666366577148,-2.9340920448303223,0.4029195308685303
1712835560710407700,7.22240771484375,-2.4653186798095703,4.263896942138672,2.624096393585205
1712835560730407700,7.24240771484375,-3.855283498764038,7.317397117614746,6.790068626403809
1712835560750407400,7.262407470703125,4.300469398498535,4.620321273803711,9.845900535583496
1712835560770407400,7.282407470703125,4.245628833770752,4.615180015563965,9.853147506713867
1712835560790407700,7.30240771484375,6.379196643829346,3.9697093963623047,12.640737533569336
1712835560810407700,7.32240771484375,-0.0647314190864563,7.140748977661133,7.335032939910889
1712835560830407700,7.34240771484375,-0.11412790417671204,6.630799293518066,-0.26648569107055664
1712835560850407700,7.36240771484375,-0.6158486604690552,6.748654365539551,-0.49455714225769043
1712835560870407700,7.38240771484375,-1.2794833183288574,5.134790420532227,-5.159937381744385
1712835560890407400,7.402407470703125,-1.842040777206421,5.306608200073242,-5.314281940460205
1712835560910407400,7.422407470703125,0.9382593631744385,3.5457019805908203,-0.3960838317871094
1712835560930407400,7.442407470703125,2.819344997406006,-0.5860843658447266,-4.123538017272949
1712835560950407400,7.462407470703125,-5.217609882354736,0.41638946533203125,-7.777118682861328
1712835560970407400,7.482407470703125,-10.010494232177734,0.07351398468017578,-8.93911075592041
1712835560990407400,7.502407470703125,-7.804035186767578,-1.5603156089782715,-3.568098306655884
1712835561010407400,7.522407470703125,-4.752114295959473,-2.9623217582702637,3.554651975631714
1712835561030407400,7.542407470703125,-3.416102886199951,-5.932975769042969,5.70866584777832
1712835561050407400,7.562407470703125,-5.5909600257873535,-5.6340012550354,2.3732573986053467
1712835561070407400,7.582407470703125,-6.938200950622559,-3.500796318054199,-1.9648306369781494
1712835561090407400,7.602407470703125,-6.582608222961426,-2.6203460693359375,-4.492920875549316
1712835561110407400,7.622407470703125,-5.132838249206543,-3.023184299468994,-4.897711753845215
1712835561130407400,7.642407470703125,-5.010414123535156,-3.1360111236572266,-4.807791709899902
1712835561150407700,7.66240771484375,-4.912285804748535,-1.7153654098510742,-2.408019781112671
1712835561170407700,7.68240771484375,-4.189725875854492,-2.0874905586242676,-1.6425034999847412
1712835561190407700,7.70240771484375,-3.7482376098632812,-2.2732958793640137,-1.925178050994873
1712835561210407700,7.72240771484375,-2.764615058898926,-2.0035648345947266,-1.5270780324935913
1712835561230407700,7.74240771484375,-2.002737522125244,1.3257436752319336,-3.941681385040283
1712835561250407400,7.762407470703125,-0.6044178009033203,2.7874441146850586,-6.729010105133057
1712835561270407400,7.782407470703125,-3.9826412200927734,4.52464485168457,-8.330190658569336
1712835561290407700,7.80240771484375,-7.182219505310059,7.321979522705078,-6.606290817260742
1712835561310407700,7.82240771484375,-6.080137729644775,5.698625564575195,-3.0172293186187744
1712835561330407700,7.84240771484375,-4.031330108642578,3.96920108795166,4.185253620147705
1712835561350407700,7.86240771484375,-3.6727638244628906,3.327090263366699,18.81734275817871
1712835561370407700,7.88240771484375,-3.0009806156158447,3.3827695846557617,19.083677291870117
1712835561390407400,7.902407470703125,0.6039135456085205,1.2897815704345703,16.253807067871094
1712835561410407400,7.922407470703125,0.7798488140106201,1.3384160995483398,16.241512298583984
1712835561430407400,7.942407470703125,4.951189994812012,1.8358230590820312,10.626557350158691
1712835561450407400,7.962407470703125,5.895089149475098,2.803065299987793,-1.10698401927948
1712835561470407400,7.982407470703125,0.2766486406326294,4.6119489669799805,-5.9134626388549805
1712835561490407400,8.002407470703124,-2.158602237701416,1.4206466674804688,-5.927589416503906
1712835561510407400,8.022407470703126,-0.7110893726348877,-0.8515748977661133,-3.746687889099121
1712835561530407400,8.042407470703125,-0.5068449974060059,-0.48335742950439453,-2.6667795181274414
1712835561550407400,8.062407470703125,-1.4040647745132446,-0.7880067825317383,-1.6672675609588623
1712835561570407400,8.082407470703124,-2.2619452476501465,-1.6650419235229492,-0.053606510162353516
1712835561590407400,8.102407470703126,-1.5933951139450073,-2.097238063812256,1.9843089580535889
1712835561610407400,8.122407470703125,-1.016433835029602,-1.8157429695129395,3.711883544921875
1712835561630407400,8.142407470703125,-0.9632412195205688,-1.119095802307129,3.9294800758361816
1712835561650407700,8.16240771484375,-1.0070230960845947,-0.7812871932983398,2.8339040279388428
1712835561670407700,8.18240771484375,-1.0982494354248047,-0.7736110687255859,2.7953855991363525
1712835561690407700,8.20240771484375,-1.4727585315704346,-1.0862550735473633,0.9826855659484863
1712835561710407700,8.22240771484375,-1.5416483879089355,-1.317103385925293,0.5844037532806396
1712835561730407700,8.24240771484375,-1.3365888595581055,-1.7129840850830078,0.2178668975830078
1712835561750407400,8.262407470703126,-1.0497469902038574,-2.018476963043213,0.2536618709564209
1712835561770407400,8.282407470703125,-0.6144593954086304,-2.211373805999756,0.3471674919128418
1712835561790407700,8.30240771484375,-0.0002619028091430664,-2.367788791656494,0.031084060668945312
1712835561810407700,8.32240771484375,0.0020560622215270996,-2.427177906036377,0.18393445014953613
1712835561830407700,8.34240771484375,0.5130150318145752,-2.580685615539551,-0.8819854259490967
1712835561850407700,8.36240771484375,0.09453296661376953,-2.4316349029541016,-1.3209197521209717
1712835561870407700,8.38240771484375,-0.2105579376220703,-2.2155699729919434,-1.4903408288955688
1712835561890407400,8.402407470703125,-1.0146453380584717,1.2458171844482422,0.35916638374328613
1712835561910407400,8.422407470703124,-0.9576506018638611,1.1976633071899414,0.5580606460571289
1712835561930407400,8.442407470703126,1.5645678043365479,4.139431953430176,6.749307632446289
1712835561950407400,8.462407470703125,1.4778610467910767,4.111336708068848,6.8418073654174805
1712835561970407400,8.482407470703125,4.268929958343506,2.9380006790161133,9.267326354980469
1712835561990407400,8.502407470703124,2.573343276977539,4.5577802658081055,9.634339332580566
1712835562010407400,8.522407470703126,0.47197043895721436,5.356805801391602,4.243765830993652
1712835562030407400,8.542407470703125,-0.014158427715301514,5.425966262817383,4.095136642456055
1712835562050407400,8.562407470703125,-5.429662704467773,4.062176704406738,-4.934593200683594
1712835562070407400,8.582407470703124,-0.29917585849761963,3.459074020385742,-3.190204381942749
1712835562090407400,8.602407470703126,6.099342346191406,1.3862199783325195,-1.31221604347229
1712835562110407400,8.622407470703125,2.5052974224090576,-1.0760202407836914,-3.9437975883483887
1712835562130407400,8.642407470703125,-5.104111194610596,-2.7269930839538574,-7.464108943939209
1712835562150407700,8.66240771484375,-5.4558563232421875,-2.6292805671691895,-7.204874038696289
1712835562170407700,8.68240771484375,-5.172759056091309,-2.25726318359375,-5.83871603012085
1712835562190407700,8.70240771484375,-1.7380750179290771,-1.8486013412475586,-0.655548095703125
1712835562210407700,8.72240771484375,-1.8556716442108154,-1.799886703491211,-0.5835628509521484
1712835562230407700,8.74240771484375,-4.414410591125488,-3.031648635864258,1.6353999376296997
1712835562250407400,8.762407470703126,-6.401680946350098,-2.166961669921875,0.8221156597137451
1712835562270407400,8.782407470703125,-6.313030242919922,-2.225818634033203,0.8817334175109863
1712835562290407700,8.80240771484375,-6.74477481842041,-2.432339668273926,0.8992512226104736
1712835562310407700,8.82240771484375,-6.481342315673828,-2.538201332092285,0.7648252248764038
1712835562330407700,8.84240771484375,-4.560624599456787,-1.7536377906799316,-1.054243803024292
1712835562350407700,8.86240771484375,-3.2960739135742188,-1.0590410232543945,-3.366929769515991
1712835562370407700,8.88240771484375,-1.6067436933517456,0.22788715362548828,-5.7950239181518555
1712835562390407400,8.902407470703125,-1.4527393579483032,1.5202932357788086,-8.032438278198242
1712835562410407400,8.922407470703124,-0.9705935716629028,4.092048645019531,-8.927181243896484
1712835562430407400,8.942407470703126,-0.22103634476661682,3.992825508117676,-8.853469848632812
1712835562450407400,8.962407470703125,-2.1444003582000732,6.342079162597656,-6.966366767883301
1712835562470407400,8.982407470703125,-1.6068017482757568,2.6663742065429688,9.04127311706543
1712835562490407400,9.002407470703124,-1.0078006982803345,2.6809730529785156,9.282842636108398
1712835562510407400,9.022407470703126,-0.33767521381378174,1.5408782958984375,18.61859130859375
1712835562530407400,9.042407470703125,-0.04388141632080078,1.5958223342895508,18.6446590423584
1712835562550407400,9.062407470703125,3.193460464477539,1.579117774963379,6.451218605041504
1712835562570407400,9.082407470703124,3.493788719177246,2.2532405853271484,2.791187286376953
1712835562590407400,9.102407470703126,1.9123479127883911,2.962451934814453,-0.9156827926635742
1712835562610407400,9.122407470703125,-0.14421594142913818,2.209324836730957,-2.2316887378692627
1712835562630407400,9.142407470703125,-0.693617582321167,1.0918989181518555,-1.2740445137023926
1712835562650407700,9.16240771484375,-0.8231198787689209,1.1174678802490234,-1.4516501426696777
1712835562670407700,9.18240771484375,0.352047324180603,-0.46239471435546875,-0.1599597930908203
1712835562690407700,9.20240771484375,0.19838261604309082,-0.4563865661621094,-0.25751376152038574
1712835562710407700,9.22240771484375,-1.228192925453186,-1.2814102172851562,0.5955069065093994
1712835562730407700,9.24240771484375,-0.7904860973358154,-1.3352150917053223,1.382852554321289
1712835562750407400,9.262407470703126,-0.518051266670227,-2.1522111892700195,1.568598747253418
1712835562770407400,9.282407470703125,-0.5972223877906799,-2.16439151763916,1.3626768589019775
1712835562790407700,9.30240771484375,-0.6878361701965332,-2.1556758880615234,1.3126859664916992
1712835562810407700,9.32240771484375,-0.8125061392784119,-1.8586411476135254,0.35291171073913574
1712835562830407700,9.34240771484375,-0.883909285068512,-2.0237579345703125,-0.6386184692382812
1712835562850407700,9.36240771484375,-1.031726360321045,-2.048251152038574,-0.8345115184783936
1712835562870407700,9.38240771484375,-0.7714093327522278,-1.744009017944336,-0.2525906562805176
1712835562890407400,9.402407470703125,-0.8784264922142029,-1.7215628623962402,0.3092927932739258
1712835562910407400,9.422407470703124,-0.8027575016021729,-1.7626128196716309,0.4530775547027588
1712835562930407400,9.442407470703126,-1.0867846012115479,-1.4856410026550293,0.7043108940124512
1712835562950407400,9.462407470703125,-0.48199063539505005,-2.0612902641296387,1.4197931289672852
1712835562970407400,9.482407470703125,-0.037430524826049805,-1.7641491889953613,2.2569210529327393
1712835562990407400,9.502407470703124,-0.5970782041549683,2.237119674682617,3.5675458908081055
1712835563010407400,9.522407470703126,-0.829003095626831,4.823809623718262,5.145794868469238
1712835563030407400,9.542407470703125,3.144496440887451,3.9550914764404297,7.063296318054199
1712835563050407400,9.562407470703125,2.9737627506256104,3.9499731063842773,7.015246391296387
1712835563070407400,9.582407470703124,3.294250726699829,4.873072624206543,11.054826736450195
1712835563090407400,9.602407470703126,-0.5894079208374023,5.867186546325684,8.302810668945312
1712835563110407400,9.622407470703125,-1.2538121938705444,5.707523345947266,2.6818184852600098
1712835563130407400,9.642407470703125,-2.337191104888916,5.603097915649414,-0.9143149852752686
1712835563150407700,9.66240771484375,-2.8501460552215576,5.743406295776367,-1.133007526397705
1712835563170407700,9.68240771484375,-3.9982638359069824,1.360260009765625,-3.6743059158325195
1712835563190407700,9.70240771484375,2.625671148300171,1.3148832321166992,-1.844306230545044
1712835563210407700,9.72240771484375,5.1992106437683105,-0.9124851226806641,-3.4847724437713623
1712835563230407700,9.74240771484375,2.3731696605682373,-2.367645263671875,-6.36058235168457
1712835563250407400,9.762407470703126,1.8353900909423828,-2.247694969177246,-5.991535186767578
1712835563270407400,9.782407470703125,-9.846445083618164,1.1165332794189453,-10.24040699005127
1712835563290407700,9.80240771484375,-6.965089797973633,-2.7962260246276855,-1.7804070711135864
1712835563310407700,9.82240771484375,-4.868958950042725,-4.929320335388184,3.6808648109436035
1712835563330407700,9.84240771484375,-4.487732410430908,-5.670022964477539,3.4666290283203125
1712835563350407700,9.86240771484375,-6.39961576461792,-3.8640127182006836,1.3508434295654297
1712835563370407700,9.88240771484375,-6.886624336242676,-2.3135428428649902,-0.8365554809570312
1712835563390407400,9.902407470703125,-6.777523040771484,-2.4105448722839355,-0.7417933940887451
1712835563410407400,9.922407470703124,-4.320058345794678,-1.8230247497558594,-3.4660468101501465
1712835563430407400,9.942407470703126,-3.9744794368743896,-1.5110130310058594,-4.0270490646362305
1712835563450407400,9.962407470703125,-3.531522274017334,-1.6539850234985352,-4.233778953552246
1712835563470407400,9.982407470703125,-4.989041328430176,-0.7695426940917969,-4.4931640625
1712835563490407400,10.002407470703124,-3.597888469696045,-0.18805789947509766,-6.054859161376953
1712835563510407400,10.022407470703126,-3.527284860610962,0.9523277282714844,-8.072257995605469
1712835563530407400,10.042407470703125,-2.6269242763519287,0.820347785949707,-8.057638168334961
1712835563550407400,10.062407470703125,-3.520110845565796,6.276157379150391,-5.602863311767578
1712835563570407400,10.082407470703124,-2.949322462081909,5.952573776245117,-2.941373109817505
1712835563590407400,10.102407470703126,-2.7720818519592285,6.607391357421875,13.825727462768555
1712835563610407400,10.122407470703125,-1.060145616531372,5.401950836181641,27.474864959716797
1712835563630407400,10.142407470703125,2.078543186187744,2.125401496887207,16.36822509765625
1712835563650407700,10.16240771484375,3.642728328704834,2.152944564819336,10.827783584594727
1712835563670407700,10.18240771484375,4.295146942138672,3.322521209716797,8.522123336791992
1712835563690407700,10.20240771484375,5.420189380645752,4.2773284912109375,1.8185261487960815
1712835563710407700,10.22240771484375,1.5989081859588623,4.5398406982421875,-3.741318941116333
1712835563730407700,10.24240771484375,-2.291637659072876,3.585537910461426,-3.525961399078369
1712835563750407400,10.262407470703126,-1.4187188148498535,0.7087545394897461,-0.8122304677963257
1712835563770407400,10.282407470703125,-0.2305164337158203,-0.7340478897094727,0.722053050994873
1712835563790407700,10.30240771484375,-0.41129326820373535,-0.7410964965820312,0.6096312999725342
1712835563810407700,10.32240771484375,-0.6704403162002563,-1.3490958213806152,2.3186557292938232
1712835563830407700,10.34240771484375,-0.8234970569610596,-1.3338322639465332,2.179358959197998
1712835563850407700,10.36240771484375,-0.20362496376037598,-1.5121207237243652,2.315215826034546
1712835563870407700,10.38240771484375,-0.7024105787277222,-1.655829906463623,1.8669254779815674
1712835563890407400,10.402407470703125,-1.1753827333450317,-1.816802978515625,0.839271068572998
1712835563910407400,10.422407470703124,-0.7756757736206055,-1.752450942993164,-0.04875373840332031
1712835563930407400,10.442407470703126,-0.7340043187141418,-1.365358829498291,-0.8252403736114502
1712835563950407400,10.462407470703125,-1.0954630374908447,-1.3206028938293457,-1.1089825630187988
1712835563970407400,10.482407470703125,-1.15140962600708,-1.3471789360046387,-1.0431873798370361
1712835563990407400,10.502407470703124,-1.4427382946014404,-2.2191061973571777,0.27422666549682617
1712835564010407400,10.522407470703126,-1.3927321434020996,-2.255466938018799,0.3903062343597412
1712835564030407400,10.542407470703125,-0.6399722695350647,-2.6305289268493652,1.149094581604004
1712835564050407400,10.562407470703125,-0.11594867706298828,-2.8655920028686523,1.7031784057617188
1712835564070407400,10.582407470703124,0.4259086549282074,-3.15201997756958,1.2304096221923828
1712835564090407400,10.602407470703126,0.14523732662200928,-1.1965065002441406,0.47414159774780273
1712835564110407400,10.622407470703125,-0.34666502475738525,1.7952375411987305,0.021832704544067383
1712835564130407400,10.642407470703125,-1.1185437440872192,3.297295570373535,0.5810487270355225
1712835564150407700,10.66240771484375,0.28328970074653625,3.1687231063842773,4.363858222961426
1712835564170407700,10.68240771484375,0.24012711644172668,3.1643075942993164,4.369441509246826
1712835564190407700,10.70240771484375,3.9640743732452393,3.3612747192382812,11.715441703796387
1712835564210407700,10.72240771484375,2.3647499084472656,3.6706018447875977,10.454925537109375
1712835564230407700,10.74240771484375,-0.8145771622657776,4.696206092834473,6.1874284744262695
1712835564250407400,10.762407470703126,-3.052716016769409,5.288032531738281,1.5092747211456299
1712835564270407400,10.782407470703125,-4.694240570068359,3.6107044219970703,-2.7457618713378906
1712835564290407700,10.80240771484375,-2.722367763519287,1.7265806198120117,-4.029447555541992
1712835564310407700,10.82240771484375,4.418359756469727,1.8445930480957031,-3.6997451782226562
1712835564330407700,10.84240771484375,5.006985664367676,-0.6414833068847656,-6.368145942687988
1712835564350407700,10.86240771484375,-0.862037181854248,-3.2420806884765625,-9.003113746643066
1712835564370407700,10.88240771484375,-6.800507545471191,-3.376255989074707,-11.547538757324219
1712835564390407400,10.902407470703125,-7.511392593383789,-2.113234519958496,-10.8191499710083
1712835564410407400,10.922407470703124,-5.392448425292969,-1.7950196266174316,-3.137270212173462
1712835564430407400,10.942407470703126,-2.062894821166992,-1.166351318359375,4.224665641784668
1712835564450407400,10.962407470703125,-0.15537738800048828,-2.936689853668213,4.446784019470215
1712835564470407400,10.982407470703125,-2.591063976287842,-2.600253105163574,1.9592342376708984
1712835564490407400,11.002407470703124,-5.887766361236572,-1.337592601776123,0.3349721431732178
1712835564510407400,11.022407470703126,-6.802844047546387,-1.2453727722167969,-0.2173933982849121
1712835564530407400,11.042407470703125,-6.196406364440918,-1.284550666809082,0.08883953094482422
1712835564550407400,11.062407470703125,-5.873728275299072,-1.371037483215332,-0.1053934097290039
1712835564570407400,11.082407470703124,-3.1610944271087646,-1.1168861389160156,-1.190727710723877
1712835564590407400,11.102407470703126,-1.6904170513153076,0.7045488357543945,-3.20756196975708
1712835564610407400,11.122407470703125,-1.98283052444458,1.3684120178222656,-5.7003631591796875
1712835564630407400,11.142407470703125,-2.016489028930664,1.389348030090332,-7.111225128173828
1712835564650407700,11.16240771484375,-2.932806968688965,5.100794792175293,-5.13411808013916
1712835564670407700,11.18240771484375,0.3250032365322113,3.0918941497802734,0.2278287410736084
1712835564690407700,11.20240771484375,0.8274286985397339,1.5489540100097656,12.602405548095703
1712835564710407700,11.22240771484375,-0.3997591733932495,0.9045562744140625,21.13191032409668
1712835564730407700,11.24240771484375,0.06165599822998047,0.9700517654418945,21.122419357299805
1712835564750407400,11.262407470703126,3.9385907649993896,2.030200958251953,7.4668803215026855
1712835564770407400,11.282407470703125,4.947357177734375,2.1254053115844727,3.6705002784729004
1712835564790407700,11.30240771484375,3.1535511016845703,1.5326547622680664,-0.2482079267501831
1712835564810407700,11.32240771484375,0.7696359157562256,1.3994550704956055,-1.412672996520996
1712835564830407700,11.34240771484375,-0.2316807508468628,1.0007076263427734,-1.333706259727478
1712835564850407700,11.36240771484375,-0.3602631092071533,1.0425729751586914,-1.5421286821365356
1712835564870407700,11.38240771484375,1.2993369102478027,-1.152775764465332,-0.8929591178894043
1712835564890407400,11.402407470703125,1.1235270500183105,-1.1311006546020508,-1.021735429763794
1712835564910407400,11.422407470703124,-0.27487605810165405,-1.4220771789550781,-0.7415294647216797
1712835564930407400,11.442407470703126,-0.414100706577301,-1.3933382034301758,-0.8545424938201904
1712835564950407400,11.462407470703125,-1.2267972230911255,-1.0367136001586914,-0.21586370468139648
1712835564970407400,11.482407470703125,-1.3522595167160034,-1.2377023696899414,1.6202538013458252
1712835564990407400,11.502407470703124,-1.3924351930618286,-1.137507438659668,2.3617329597473145
1712835565010407400,11.522407470703126,-0.904000461101532,-1.618058204650879,2.2373292446136475
1712835565030407400,11.542407470703125,-0.9678083658218384,-1.6301488876342773,2.26282000541687
1712835565050407400,11.562407470703125,-0.5909306406974792,-2.0871520042419434,1.5866596698760986
1712835565070407400,11.582407470703124,-1.3264575004577637,-2.0193819999694824,0.1829516887664795
1712835565090407400,11.602407470703126,-1.353644847869873,-2.0394206047058105,0.23615097999572754
1712835565110407400,11.622407470703125,-1.2196741104125977,-2.551393985748291,-0.33853673934936523
1712835565130407400,11.642407470703125,-0.8315101265907288,-2.4486074447631836,-0.281083345413208
1712835565150407700,11.66240771484375,-0.47596216201782227,-2.1482620239257812,-0.27245092391967773
1712835565170407700,11.68240771484375,-0.13333472609519958,-1.5779376029968262,-0.1828019618988037
1712835565190407700,11.70240771484375,-0.42716360092163086,-0.22882080078125,-0.12503576278686523
1712835565210407700,11.72240771484375,-1.0491788387298584,2.9472198486328125,1.4436089992523193
1712835565230407700,11.74240771484375,-0.9993381500244141,2.9062347412109375,1.620703935623169
1712835565250407400,11.762407470703126,2.9931833744049072,2.5381946563720703,5.520445823669434
1712835565270407400,11.782407470703125,4.391005039215088,2.504042625427246,7.268014430999756
1712835565290407700,11.80240771484375,3.6962859630584717,3.787411689758301,8.982749938964844
1712835565310407700,11.82240771484375,1.2785656452178955,4.691549301147461,7.982893943786621
1712835565330407700,11.84240771484375,-1.0004706382751465,4.288939476013184,4.554408073425293
1712835565350407700,11.86240771484375,-2.5670299530029297,4.428647041320801,0.9573850631713867
1712835565370407700,11.88240771484375,-2.9688477516174316,4.509474754333496,0.8216419219970703
1712835565390407400,11.902407470703125,-0.9733889698982239,2.4573259353637695,-1.8025004863739014
1712835565410407400,11.922407470703124,-1.402991533279419,0.599034309387207,-3.1512279510498047
1712835565430407400,11.942407470703126,0.68170166015625,-0.35230541229248047,-2.7434964179992676
1712835565450407400,11.962407470703125,3.4931697845458984,-0.8431406021118164,-2.313657283782959
1712835565470407400,11.982407470703125,1.2902982234954834,-1.7422332763671875,-4.627336502075195
1712835565490407400,12.002407470703124,-3.2911148071289062,-2.66263484954834,-7.1965484619140625
1712835565510407400,12.022407470703126,-7.22281551361084,-3.285933494567871,-8.720538139343262
1712835565530407400,12.042407470703125,-6.599404811859131,-3.9063644409179688,-6.9688262939453125
1712835565550407400,12.062407470703125,-3.051246404647827,-4.3883562088012695,-2.720111846923828
1712835565570407400,12.082407470703124,-0.5348577499389648,-4.76850700378418,-0.05261540412902832
1712835565590407400,12.102407470703126,-0.4819178581237793,-4.830554962158203,0.18416082859039307
1712835565610407400,12.122407470703125,-5.055031776428223,1.2905588150024414,-1.0929057598114014
1712835565630407400,12.142407470703125,-5.292975425720215,0.4484720230102539,2.5302000045776367
1712835565650407700,12.16240771484375,-4.736813068389893,-1.0413117408752441,4.64804220199585
1712835565670407700,12.18240771484375,-5.356902599334717,0.5663585662841797,4.0684356689453125
1712835565690407700,12.20240771484375,-5.479733943939209,1.552577018737793,0.9466531276702881
1712835565710407700,12.22240771484375,-3.3012211322784424,2.148404121398926,-2.0233864784240723
1712835565730407700,12.24240771484375,-2.7395730018615723,2.016810417175293,-2.2999355792999268
1712835565750407400,12.262407470703126,-3.492201328277588,3.1652746200561523,-6.569781303405762
1712835565770407400,12.282407470703125,-1.505767822265625,0.7200355529785156,-3.816037654876709
1712835565790407700,12.30240771484375,1.3185882568359375,-0.8696374893188477,3.8308184146881104
1712835565810407700,12.32240771484375,1.8941588401794434,-0.8761405944824219,3.7069621086120605
1712835565830407700,12.34240771484375,-2.2235774993896484,4.014820098876953,17.385845184326172
1712835565850407700,12.36240771484375,2.048821449279785,2.901190757751465,8.382856369018555
1712835565870407700,12.38240771484375,4.357737064361572,2.7521791458129883,4.736196517944336
1712835565890407400,12.402407470703125,4.75947904586792,2.933030128479004,2.446850538253784
1712835565910407400,12.422407470703124,4.653372287750244,2.965823173522949,2.277265787124634
1712835565930407400,12.442407470703126,1.5271470546722412,1.8872804641723633,-2.8598480224609375
1712835565950407400,12.462407470703125,-0.4819856882095337,0.9435281753540039,-3.214175224304199
1712835565970407400,12.482407470703125,0.24204230308532715,-0.6807832717895508,-1.2409546375274658
1712835565990407400,12.502407470703124,0.646371066570282,-0.7309741973876953,0.8136110305786133
1712835566010407400,12.522407470703126,0.1912374496459961,-1.3152246475219727,1.4270930290222168
1712835566030407400,12.542407470703125,-0.09484279155731201,-1.776994228363037,1.4461145401000977
1712835566050407400,12.562407470703125,-0.4051051735877991,-1.4878592491149902,1.679311990737915
1712835566070407400,12.582407470703124,-1.1233081817626953,-1.5486359596252441,1.6025633811950684
1712835566090407400,12.602407470703126,-1.7283542156219482,-2.004366397857666,1.1215474605560303
1712835566110407400,12.622407470703125,-1.7684924602508545,-2.041104316711426,0.4088296890258789
1712835566130407400,12.642407470703125,-1.405308723449707,-1.1663007736206055,0.18597888946533203
1712835566150407700,12.66240771484375,-1.079392433166504,-0.5143108367919922,0.0715639591217041
1712835566170407700,12.68240771484375,-0.729914665222168,-0.4602994918823242,0.39528894424438477
1712835566190407700,12.70240771484375,-0.3712637722492218,-0.8304157257080078,0.7617981433868408
1712835566210407700,12.72240771484375,-0.10458937287330627,-1.2548127174377441,1.1208500862121582
1712835566230407700,12.74240771484375,-0.009296238422393799,-1.252357006072998,1.4974637031555176
1712835566250407400,12.762407470703126,0.0757981538772583,-1.3698558807373047,1.36466383934021
1712835566270407400,12.782407470703125,0.01518791913986206,-1.510364055633545,0.7968184947967529
1712835566290407700,12.80240771484375,-0.09979891777038574,-1.8140335083007812,-0.006948947906494141
1712835566310407700,12.82240771484375,-0.14061635732650757,-2.1732778549194336,-0.5111711025238037
1712835566330407700,12.84240771484375,-0.2555570602416992,-2.3923444747924805,-1.0168414115905762
1712835566350407700,12.86240771484375,-0.32190823554992676,-2.134812831878662,-1.498600721359253
1712835566370407700,12.88240771484375,0.0453413724899292,-1.8544011116027832,-1.043504238128662
1712835566390407400,12.902407470703125,0.516745388507843,-0.10715866088867188,0.3526277542114258
1712835566410407400,12.922407470703124,0.6319470405578613,1.6346683502197266,1.4452829360961914
1712835566430407400,12.942407470703126,1.2914079427719116,2.369441032409668,2.6224749088287354
1712835566450407400,12.962407470703125,3.01515531539917,2.1152820587158203,3.3617050647735596
1712835566470407400,12.982407470703125,4.213998317718506,2.197681427001953,5.4015398025512695
1712835566490407400,13.002407470703124,3.770014762878418,2.2688446044921875,6.535734176635742
1712835566510407400,13.022407470703126,2.056581735610962,2.5369997024536133,5.078061103820801
1712835566530407400,13.042407470703125,0.31973347067832947,3.007012367248535,3.3584489822387695
1712835566550407400,13.062407470703125,-0.34986352920532227,2.87345027923584,1.9752931594848633
1712835566570407400,13.082407470703124,-0.30931174755096436,1.960160255432129,0.05091428756713867
1712835566590407400,13.102407470703126,-0.9085921049118042,1.3097896575927734,-1.7971422672271729
1712835566610407400,13.122407470703125,0.943801999092102,0.072113037109375,-1.4490172863006592
1712835566630407400,13.142407470703125,1.5750246047973633,-0.41448497772216797,-2.6000845432281494
1712835566650407700,13.16240771484375,-2.0534183979034424,-2.7405920028686523,-6.380836009979248
1712835566670407700,13.18240771484375,-3.148366928100586,-4.7627692222595215,-9.202665328979492
1712835566690407700,13.20240771484375,-3.8053765296936035,-4.608564376831055,-8.550273895263672
1712835566710407700,13.22240771484375,-3.730053424835205,-3.604640483856201,-6.8111114501953125
1712835566730407700,13.24240771484375,-3.5189640522003174,-1.2025036811828613,-4.520626068115234
1712835566750407400,13.262407470703126,-1.2675411701202393,0.33512306213378906,-2.0652074813842773
1712835566770407400,13.282407470703125,2.06022047996521,-1.497072696685791,-2.2904675006866455
1712835566790407700,13.30240771484375,-2.531416177749634,-1.1747426986694336,-5.663248538970947
1712835566810407700,13.32240771484375,-3.4906060695648193,2.845548629760742,-8.88541316986084
1712835566830407700,13.34240771484375,-9.416912078857422,5.674675941467285,-10.519601821899414
1712835566850407700,13.36240771484375,-9.267065048217773,5.670434951782227,-10.104185104370117
1712835566870407700,13.38240771484375,1.628300428390503,3.587636947631836,16.892498016357422
1712835566890407400,13.402407470703125,12.52458381652832,3.455221176147461,26.376506805419922
1712835566910407400,13.422407470703124,-4.034789085388184,-1.9476470947265625,16.29526138305664
1712835566930407400,13.442407470703126,-3.7815959453582764,7.394014358520508,12.326279640197754
1712835566950407400,13.462407470703125,2.855389356613159,4.994046211242676,7.395709991455078
1712835566970407400,13.482407470703125,3.0066604614257812,0.01795196533203125,2.955029010772705
1712835566990407400,13.502407470703124,3.278790235519409,0.3609952926635742,-2.2378506660461426
1712835567010407400,13.522407470703126,1.1344406604766846,2.670717239379883,-6.132728576660156
1712835567030407400,13.542407470703125,0.44858598709106445,1.2613754272460938,-7.635379314422607
1712835567050407400,13.562407470703125,0.5130963325500488,1.2592096328735352,-7.534884929656982
1712835567070407400,13.582407470703124,-1.6843512058258057,-2.208345413208008,-1.0507770776748657
1712835567090407400,13.602407470703126,-3.958507537841797,2.086414337158203,8.732881546020508
1712835567110407400,13.622407470703125,7.000180244445801,3.594893455505371,-2.805389881134033
1712835567130407400,13.642407470703125,-0.6022539138793945,1.3714561462402344,-8.922686576843262
1712835567150407700,13.66240771484375,-4.419631481170654,-0.7298345565795898,-5.855221748352051
1712835567170407700,13.68240771484375,-6.040285110473633,-3.2423267364501953,9.093926429748535
1712835567190407700,13.70240771484375,-5.96530818939209,-1.5680465698242188,18.112918853759766
1712835567210407700,13.72240771484375,-2.575597047805786,1.6826705932617188,24.347387313842773
1712835567230407700,13.74240771484375,5.680810451507568,1.7560844421386719,16.951936721801758
1712835567250407400,13.762407470703126,5.373178482055664,2.012239456176758,8.178683280944824
1712835567270407400,13.782407470703125,-0.056375980377197266,4.78761100769043,-1.2286468744277954
1712835567290407700,13.80240771484375,-0.1339712142944336,4.848414421081543,-0.8095059394836426
1712835567310407700,13.82240771484375,-6.706976890563965,2.704939842224121,-15.00238037109375
1712835567330407700,13.84240771484375,-6.742387771606445,2.718104362487793,-15.070923805236816
1712835567350407700,13.86240771484375,-3.1787607669830322,-0.6886286735534668,-3.4284701347351074
1712835567370407700,13.88240771484375,-0.5306925773620605,0.7118759155273438,3.0844483375549316
1712835567390407400,13.902407470703125,3.0359764099121094,-2.7663917541503906,2.2589244842529297
1712835567410407400,13.922407470703124,-1.756760835647583,-4.617700576782227,0.08205783367156982
1712835567430407400,13.942407470703126,-8.6451416015625,-3.483283042907715,-0.18314248323440552
1712835567450407400,13.962407470703125,-9.497840881347656,-2.0254034996032715,-2.237003803253174
1712835567470407400,13.982407470703125,-6.597001552581787,-2.661231517791748,-4.960058212280273
1712835567490407400,14.002407470703124,-5.411219596862793,-2.2360730171203613,-5.274923801422119
1712835567510407400,14.022407470703126,-5.1567792892456055,-1.1918163299560547,-5.920082092285156
1712835567530407400,14.042407470703125,-2.949950933456421,-0.4302330017089844,-7.92856502532959
1712835567550407400,14.062407470703125,-2.195437431335449,1.739206314086914,-8.553714752197266
1712835567570407400,14.082407470703124,-1.623188853263855,6.01248836517334,-8.185141563415527
1712835567590407400,14.102407470703126,-4.6310811042785645,3.7252321243286133,-8.854825973510742
1712835567610407400,14.122407470703125,-1.2606184482574463,-0.16983318328857422,-0.9580546617507935
1712835567630407400,14.142407470703125,-0.4557681083679199,2.1502676010131836,22.29096794128418
1712835567650407700,14.16240771484375,0.22612875699996948,2.229794502258301,22.196914672851562
1712835567670407700,14.18240771484375,2.3993849754333496,1.453322410583496,13.508674621582031
1712835567690407700,14.20240771484375,5.017932891845703,3.6086244583129883,6.9230194091796875
1712835567710407700,14.22240771484375,3.037569999694824,5.332350730895996,3.043196678161621
1712835567730407700,14.24240771484375,1.1349635124206543,3.295133590698242,-2.36572265625
1712835567750407400,14.262407470703126,0.07715785503387451,1.5657262802124023,-4.326865196228027
1712835567770407400,14.282407470703125,-1.049595594406128,0.47217559814453125,-2.346104145050049
1712835567790407700,14.30240771484375,-0.8782105445861816,-0.8873882293701172,-0.3473660945892334
1712835567810407700,14.32240771484375,-0.2108309268951416,-1.402998924255371,0.41538214683532715
1712835567830407700,14.34240771484375,-0.3698171377182007,-1.2481422424316406,0.5921998023986816
1712835567850407700,14.36240771484375,-0.41710901260375977,-1.1386942863464355,1.1963152885437012
1712835567870407700,14.38240771484375,-0.10038959980010986,-1.2910170555114746,2.03299880027771
1712835567890407400,14.402407470703125,-0.11590278148651123,-1.7617578506469727,2.232573986053467
1712835567910407400,14.422407470703124,-0.727214515209198,-1.8751211166381836,1.5437273979187012
1712835567930407400,14.442407470703126,-1.613726258277893,-1.3589344024658203,0.4645099639892578
1712835567950407400,14.462407470703125,-1.4538545608520508,-1.3553557395935059,-0.389786958694458
1712835567970407400,14.482407470703125,-0.6297560334205627,-1.2727551460266113,-0.40422654151916504
1712835567990407400,14.502407470703124,-0.5602367520332336,-0.8346805572509766,0.11940908432006836
1712835568010407400,14.522407470703126,-0.4606344699859619,-0.385498046875,0.4101719856262207
1712835568030407400,14.542407470703125,-0.6035585999488831,-0.3332052230834961,0.6039769649505615
1712835568050407400,14.562407470703125,-0.7464339137077332,-0.32028865814208984,1.1735973358154297
1712835568070407400,14.582407470703124,-0.609488844871521,-1.070263385772705,1.7218163013458252
1712835568090407400,14.602407470703126,0.06692540645599365,-2.08669376373291,1.3954522609710693
1712835568110407400,14.622407470703125,0.2975783348083496,-2.0858898162841797,0.7661397457122803
1712835568130407400,14.642407470703125,0.30114102363586426,-2.1052303314208984,0.8151583671569824
1712835568150407700,14.66240771484375,0.13685935735702515,-1.6167244911193848,-0.15250229835510254
1712835568170407700,14.68240771484375,0.05823415517807007,-1.724076271057129,-1.9855148792266846
1712835568190407700,14.70240771484375,0.08660537004470825,-2.107485294342041,-1.8880857229232788
1712835568210407700,14.72240771484375,0.8171089887619019,-2.35416841506958,-1.306164026260376
1712835568230407700,14.74240771484375,1.5696438550949097,-1.0549497604370117,-0.7962710857391357
1712835568250407400,14.762407470703126,1.0968854427337646,1.797555923461914,0.2975907325744629
1712835568270407400,14.782407470703125,0.6020239591598511,3.7328176498413086,1.6632192134857178
1712835568290407700,14.80240771484375,2.076688289642334,3.3564453125,3.561711311340332
1712835568310407700,14.82240771484375,4.321271896362305,1.7194747924804688,5.335519790649414
1712835568330407700,14.84240771484375,4.769214630126953,1.4230661392211914,5.779726982116699
1712835568350407700,14.86240771484375,3.1584417819976807,1.7902584075927734,5.445293426513672
1712835568370407700,14.88240771484375,0.6523676514625549,2.29744815826416,4.0818071365356445
1712835568390407400,14.902407470703125,0.025828242301940918,2.0030508041381836,1.7548482418060303
1712835568410407400,14.922407470703124,-0.43008238077163696,2.0532751083374023,1.7327532768249512
1712835568430407400,14.942407470703126,0.014183521270751953,0.5393524169921875,-0.4450035095214844
1712835568450407400,14.962407470703125,-0.49739348888397217,0.6320409774780273,-0.4033019542694092
1712835568470407400,14.982407470703125,0.6559083461761475,0.14835739135742188,-3.903968572616577
1712835568490407400,15.002407470703124,-2.1168367862701416,-1.2233648300170898,-7.575227737426758
1712835568510407400,15.022407470703126,-3.2585246562957764,-1.6955132484436035,-6.3863677978515625
1712835568530407400,15.042407470703125,-2.905333995819092,-2.3729019165039062,-3.2281672954559326
1712835568550407400,15.062407470703125,-2.8299050331115723,-1.8275799751281738,-1.2743149995803833
1712835568570407400,15.082407470703124,-5.499938488006592,-0.5637073516845703,-1.9762377738952637
1712835568590407400,15.102407470703126,-6.356113910675049,-0.2702045440673828,0.14942705631256104
1712835568610407400,15.122407470703125,-4.88862943649292,-2.0774331092834473,2.4630308151245117
1712835568630407400,15.142407470703125,-4.925126075744629,-0.693079948425293,2.4828991889953613
1712835568650407700,15.16240771484375,-4.63722562789917,2.1900405883789062,-0.1787465214729309
1712835568670407700,15.18240771484375,-4.153417110443115,2.349268913269043,-4.371621608734131
1712835568690407700,15.20240771484375,-4.716459274291992,1.7542047500610352,-6.2196221351623535
1712835568710407700,15.22240771484375,-3.493842124938965,2.550980567932129,-1.9290540218353271
1712835568730407700,15.24240771484375,0.2437381148338318,1.2173891067504883,5.682037830352783
1712835568750407400,15.262407470703126,2.1470911502838135,-1.6592159271240234,13.749048233032227
1712835568770407400,15.282407470703125,-0.5794248580932617,0.3139972686767578,16.55765724182129
1712835568790407700,15.30240771484375,-1.5911461114883423,4.293724060058594,10.817251205444336
1712835568810407700,15.32240771484375,3.422295093536377,4.456267356872559,4.642404556274414
1712835568830407700,15.34240771484375,6.378682613372803,3.932276725769043,1.352609634399414
1712835568850407700,15.36240771484375,6.287276268005371,4.014226913452148,1.0418155193328857
1712835568870407700,15.38240771484375,5.7611846923828125,3.3092966079711914,-2.123807668685913
1712835568890407400,15.402407470703125,1.6340038776397705,0.7397499084472656,-7.203066349029541
1712835568910407400,15.422407470703124,1.5667498111724854,0.826136589050293,-7.431044578552246
1712835568930407400,15.442407470703126,0.6471452116966248,-0.4784383773803711,-5.142073631286621
1712835568950407400,15.462407470703125,1.7256004810333252,-1.9203500747680664,-0.21358203887939453
1712835568970407400,15.482407470703125,0.4446975290775299,-2.455885410308838,0.48364877700805664
1712835568990407400,15.502407470703124,0.4757044017314911,-2.404531955718994,0.3825397491455078
1712835569010407400,15.522407470703126,-0.5065591931343079,-2.380553722381592,0.7335734367370605
1712835569030407400,15.542407470703125,-0.8873767256736755,-1.7995414733886719,1.2076425552368164
1712835569050407400,15.562407470703125,-1.192007303237915,-1.9086098670959473,0.8817510604858398
1712835569070407400,15.582407470703124,-1.4665188789367676,-2.0593323707580566,0.31674671173095703
1712835569090407400,15.602407470703126,-0.6129103899002075,-2.466427803039551,-0.9044249057769775
1712835569110407400,15.622407470703125,-0.22857871651649475,-2.642451286315918,-1.0818605422973633
1712835569130407400,15.642407470703125,-0.16295626759529114,-2.6486916542053223,-1.074810266494751
1712835569150407700,15.66240771484375,-0.18600714206695557,-2.2698683738708496,-0.9996387958526611
1712835569170407700,15.68240771484375,-0.5285018682479858,-1.6251559257507324,-0.7240002155303955
1712835569190407700,15.70240771484375,-0.4367702007293701,-1.7170062065124512,-0.502479076385498
1712835569210407700,15.72240771484375,-0.12609773874282837,-2.3212838172912598,0.0715174674987793
1712835569230407700,15.74240771484375,-0.30014902353286743,-1.8967151641845703,1.2552502155303955
1712835569250407400,15.762407470703126,-0.24769413471221924,0.9490604400634766,3.081075668334961
1712835569270407400,15.782407470703125,-0.43291181325912476,4.153905868530273,4.082907199859619
1712835569290407700,15.80240771484375,0.7584671378135681,4.775690078735352,6.375790596008301
1712835569310407700,15.82240771484375,3.588062047958374,3.777009963989258,8.681208610534668
1712835569330407700,15.84240771484375,5.1739726066589355,2.784449577331543,9.733495712280273
1712835569350407700,15.86240771484375,3.2922089099884033,2.9026565551757812,8.742673873901367
1712835569370407700,15.88240771484375,0.5896651148796082,4.106318473815918,5.040011882781982
1712835569390407400,15.902407470703125,-0.5517664551734924,4.708488464355469,1.2428076267242432
1712835569410407400,15.922407470703124,-3.526874542236328,3.665156364440918,-1.3534631729125977
1712835569430407400,15.942407470703126,-4.095871925354004,1.7423009872436523,-2.516098976135254
1712835569450407400,15.962407470703125,3.159971237182617,1.177760124206543,1.2180142402648926
1712835569470407400,15.982407470703125,7.76438570022583,-0.43756961822509766,-1.5096611976623535
1712835569490407400,16.002407470703126,0.9845623970031738,-3.5313215255737305,-6.1081743240356445
1712835569510407400,16.022407470703126,-4.802003860473633,-2.9609994888305664,-9.724906921386719
1712835569530407400,16.042407470703125,-6.883832931518555,-1.2596492767333984,-9.462658882141113
1712835569550407400,16.062407470703125,-4.047477722167969,-1.9491791725158691,-5.088752746582031
1712835569570407400,16.082407470703124,-2.3895156383514404,-1.529059886932373,0.3546574115753174
1712835569590407400,16.102407470703124,-2.259253978729248,-2.1833696365356445,2.670445442199707
1712835569610407400,16.122407470703124,-3.7667019367218018,-2.575352191925049,1.776897668838501
1712835569630407400,16.142407470703127,-4.8965325355529785,-1.3417716026306152,1.3925849199295044
1712835569650407700,16.16240771484375,-5.14739990234375,-1.3306264877319336,1.1832343339920044
1712835569670407700,16.18240771484375,-4.3781023025512695,-1.7344350814819336,0.5999892950057983
1712835569690407700,16.20240771484375,-3.215292453765869,-0.4379234313964844,-1.2133474349975586
1712835569710407700,16.22240771484375,-3.127046823501587,1.6797914505004883,-3.958019256591797
1712835569730407700,16.24240771484375,-4.181115627288818,-0.10796165466308594,-6.558908939361572
1712835569750407400,16.262407470703124,-4.6107683181762695,0.9976692199707031,-4.9012956619262695
1712835569770407400,16.282407470703124,-2.425771951675415,5.157102584838867,-0.7906827926635742
1712835569790407700,16.30240771484375,-1.8118703365325928,5.1154584884643555,-0.6874246597290039
1712835569810407700,16.32240771484375,2.922173500061035,-2.451721668243408,9.112188339233398
1712835569830407700,16.34240771484375,0.06251990795135498,-1.0954561233520508,16.02823829650879
1712835569850407700,16.36240771484375,0.6316790580749512,-0.9925804138183594,15.911909103393555
1712835569870407700,16.38240771484375,2.6784801483154297,3.342365264892578,4.343013763427734
1712835569890407400,16.402407470703125,6.154160022735596,2.990424156188965,2.7795252799987793
1712835569910407400,16.422407470703124,5.868197917938232,1.559840202331543,0.9292526245117188
1712835569930407400,16.442407470703124,5.736049175262451,1.5971002578735352,0.7053215503692627
1712835569950407400,16.462407470703123,3.563659191131592,0.9785699844360352,-2.020612955093384
1712835569970407400,16.482407470703127,0.49605774879455566,1.659524917602539,-3.5897369384765625
1712835569990407400,16.502407470703126,0.7620093822479248,-0.27206993103027344,0.09734964370727539
1712835570010407400,16.522407470703126,0.5757101774215698,-0.7227573394775391,1.482253074645996
1712835570030407400,16.542407470703125,0.4970235824584961,-0.7082672119140625,1.4076428413391113
1712835570050407400,16.562407470703125,-0.46842825412750244,-1.310173511505127,1.7062480449676514
1712835570070407400,16.582407470703124,-1.1782456636428833,-0.9220666885375977,1.8095567226409912
1712835570090407400,16.602407470703124,-1.5258926153182983,-1.5409026145935059,1.5977377891540527
1712835570110407400,16.622407470703124,-1.4103655815124512,-1.6548337936401367,1.3845837116241455
1712835570130407400,16.642407470703127,-0.9871858358383179,-1.2360739707946777,1.3478784561157227
1712835570150407700,16.66240771484375,-0.595024049282074,-1.0017013549804688,1.0709805488586426
1712835570170407700,16.68240771484375,-0.40645116567611694,-1.0682191848754883,0.8546290397644043
1712835570190407700,16.70240771484375,-0.01321721076965332,-1.4647459983825684,0.5318410396575928
1712835570210407700,16.72240771484375,0.28842324018478394,-1.7978944778442383,0.3717803955078125
1712835570230407700,16.74240771484375,0.014402925968170166,-1.7905325889587402,0.17432332038879395
1712835570250407400,16.762407470703124,-0.2648071050643921,-1.9753780364990234,-0.287245512008667
1712835570270407400,16.782407470703124,-0.34593409299850464,-2.34249210357666,-0.7093160152435303
1712835570290407700,16.80240771484375,-0.2575804591178894,-2.7367658615112305,-0.7162599563598633
1712835570310407700,16.82240771484375,0.15953993797302246,-2.6926584243774414,-0.5168354511260986
1712835570330407700,16.84240771484375,0.15167289972305298,-2.487732410430908,-0.17619872093200684
1712835570350407700,16.86240771484375,-0.07097464799880981,-1.6165037155151367,0.6744639873504639
1712835570370407700,16.88240771484375,0.6724605560302734,0.9039506912231445,1.889235496520996
1712835570390407400,16.902407470703125,0.8027256727218628,2.601128578186035,2.1488449573516846
1712835570410407400,16.922407470703124,2.2343811988830566,2.602701187133789,3.4723639488220215
1712835570430407400,16.942407470703124,4.801549911499023,1.8110342025756836,5.531065464019775
1712835570450407400,16.962407470703123,4.662471771240234,1.7434654235839844,7.173431396484375
1712835570470407400,16.982407470703127,4.306563377380371,1.7494621276855469,7.118564605712891
1712835570490407400,17.002407470703126,1.5281778573989868,2.8867740631103516,3.1487672328948975
1712835570510407400,17.022407470703126,0.8496119976043701,4.500795364379883,-0.4748997688293457
1712835570530407400,17.042407470703125,-1.2310787439346313,5.073515892028809,-2.458179473876953
1712835570550407400,17.062407470703125,-3.1785335540771484,3.0016307830810547,-1.2310534715652466
1712835570570407400,17.082407470703124,-2.1948158740997314,0.9597654342651367,-0.03847670555114746
1712835570590407400,17.102407470703124,0.8308274745941162,-1.3107147216796875,0.8573312759399414
1712835570610407400,17.122407470703124,3.7073240280151367,-1.8427314758300781,1.8752105236053467
1712835570630407400,17.142407470703127,-0.18946528434753418,-2.34834623336792,-2.3955469131469727
1712835570650407700,17.16240771484375,-4.146568298339844,-1.8454041481018066,-8.54655647277832
1712835570670407700,17.18240771484375,-4.435815811157227,-1.0776410102844238,-10.044903755187988
1712835570690407700,17.20240771484375,-3.120508909225464,-1.9569382667541504,-7.257331848144531
1712835570710407700,17.22240771484375,-2.291612148284912,-2.658139705657959,-4.374577045440674
1712835570730407700,17.24240771484375,-1.905240774154663,-2.0385026931762695,-3.436067581176758
1712835570750407400,17.262407470703124,-0.8285057544708252,0.6002416610717773,-1.9085428714752197
1712835570770407400,17.282407470703124,-2.075754165649414,1.6789627075195312,1.7751222848892212
1712835570790407700,17.30240771484375,1.4808714389801025,-1.1206822395324707,4.502793312072754
1712835570810407700,17.32240771484375,1.575136661529541,-1.161241054534912,4.554848670959473
1712835570830407700,17.34240771484375,-5.352482318878174,0.5127058029174805,-4.852488040924072
1712835570850407700,17.36240771484375,-8.507471084594727,2.5307703018188477,-8.178779602050781
1712835570870407700,17.38240771484375,-10.39744758605957,0.04238605499267578,-3.714156150817871
1712835570890407400,17.402407470703125,-4.812170028686523,-0.6725568771362305,6.572471618652344
1712835570910407400,17.422407470703124,11.674654960632324,2.3878536224365234,24.36479377746582
1712835570930407400,17.442407470703124,2.860682487487793,-4.1523966789245605,19.232006072998047
1712835570950407400,17.462407470703123,-2.818291664123535,0.5779829025268555,14.500905990600586
1712835570970407400,17.482407470703127,1.3502888679504395,8.922471046447754,7.507342338562012
1712835570990407400,17.502407470703126,1.7559471130371094,5.04691219329834,-0.5343462228775024
1712835571010407400,17.522407470703126,1.8813819885253906,2.093618392944336,-3.012424945831299
1712835571030407400,17.542407470703125,0.5627908706665039,0.46206188201904297,-5.436222553253174
1712835571050407400,17.562407470703125,2.724188804626465,-2.65214204788208,-5.958733558654785
1712835571070407400,17.582407470703124,0.5092003345489502,1.92132568359375,1.7554349899291992
1712835571090407400,17.602407470703124,0.33686161041259766,0.19690799713134766,-9.839997291564941
1712835571110407400,17.622407470703124,-0.002304553985595703,-2.7846550941467285,-9.81739330291748
1712835571130407400,17.642407470703127,-7.223086357116699,-4.913121700286865,-8.834084510803223
1712835571150407700,17.66240771484375,-4.431884765625,-2.6602096557617188,-0.45534753799438477
1712835571170407700,17.68240771484375,-0.672727108001709,0.08980369567871094,17.605945587158203
1712835571190407700,17.70240771484375,-0.29716920852661133,2.529214859008789,23.019065856933594
1712835571210407700,17.72240771484375,3.757559061050415,1.7597246170043945,20.055194854736328
1712835571230407700,17.74240771484375,2.7610933780670166,6.423613548278809,11.669210433959961
1712835571250407400,17.762407470703124,2.3127784729003906,7.801516532897949,-0.7303889393806458
1712835571270407400,17.782407470703124,-1.5863769054412842,6.393616676330566,-7.709505558013916
1712835571290407700,17.80240771484375,-4.306944370269775,2.3536195755004883,-14.549090385437012
1712835571310407700,17.82240771484375,-0.29181957244873047,1.4383373260498047,-8.110357284545898
1712835571330407700,17.84240771484375,1.508613109588623,-3.723398208618164,-1.3903429508209229
1712835571350407700,17.86240771484375,-2.6948843002319336,-5.068707466125488,-1.165938377380371
1712835571370407700,17.88240771484375,-4.431624412536621,-2.277390956878662,-1.1073782444000244
1712835571390407400,17.902407470703125,-7.909565448760986,0.09857463836669922,-1.031438946723938
1712835571410407400,17.922407470703124,-6.400998592376709,-1.7419915199279785,-2.1350533962249756
1712835571430407400,17.942407470703124,-5.332118034362793,-4.422949314117432,-1.3908079862594604
1712835571450407400,17.962407470703123,-3.1833319664001465,-3.292788028717041,-6.097034454345703
1712835571470407400,17.982407470703127,-8.799117088317871,4.207162857055664,-9.583849906921387
1712835571490407400,18.002407470703126,-9.739397048950195,1.9144964218139648,-14.552421569824219
1712835571510407400,18.022407470703126,-9.031835556030273,2.868410110473633,-8.480696678161621
1712835571530407400,18.042407470703125,-8.185601234436035,2.7164602279663086,-8.665315628051758
1712835571550407400,18.062407470703125,0.5215744972229004,6.443023681640625,16.060821533203125
1712835571570407400,18.082407470703124,8.92541217803955,-1.795386791229248,19.753143310546875
1712835571590407400,18.102407470703124,3.650944709777832,-5.090157508850098,19.482633590698242
1712835571610407400,18.122407470703124,4.133392333984375,-4.972131729125977,19.242097854614258
1712835571630407400,18.142407470703127,-3.9693005084991455,7.244111061096191,3.9783358573913574
1712835571650407700,18.16240771484375,-4.035797595977783,7.373120307922363,3.6466643810272217
1712835571670407700,18.18240771484375,4.367443084716797,2.2852678298950195,-3.5643832683563232
1712835571690407700,18.20240771484375,3.1911747455596924,0.5047988891601562,-5.459862232208252
1712835571710407700,18.22240771484375,2.0218746662139893,-0.9895405769348145,-6.199392795562744
1712835571730407700,18.24240771484375,1.4579253196716309,-2.046238422393799,-4.089957237243652
1712835571750407400,18.262407470703124,1.5748662948608398,-2.609140396118164,-1.0542683601379395
1712835571770407400,18.282407470703124,1.649428129196167,-2.7547497749328613,0.9848380088806152
1712835571790407700,18.30240771484375,1.6622042655944824,-2.681063175201416,0.8692374229431152
1712835571810407700,18.32240771484375,0.1884264349937439,-2.8469271659851074,-0.2075643539428711
1712835571830407700,18.34240771484375,-0.42958706617355347,-3.032937526702881,-0.5468096733093262
1712835571850407700,18.36240771484375,-0.6243266463279724,-3.2923240661621094,-0.47879838943481445
1712835571870407700,18.38240771484375,-0.6090793609619141,-2.403507709503174,-0.24930477142333984
1712835571890407400,18.402407470703125,-0.8804882168769836,-1.5261335372924805,-0.20014238357543945
1712835571910407400,18.422407470703124,-0.9454723000526428,-1.2605266571044922,0.31864309310913086
1712835571930407400,18.442407470703124,-0.8878297209739685,-1.2699298858642578,0.33829450607299805
1712835571950407400,18.462407470703123,-0.9636602997779846,-0.5963149070739746,1.0338892936706543
1712835571970407400,18.482407470703127,-1.0676450729370117,-0.7537708282470703,1.0850639343261719
1712835571990407400,18.502407470703126,-0.5984253883361816,-0.7667889595031738,1.7548918724060059
1712835572010407400,18.522407470703126,0.03553605079650879,-1.1681537628173828,2.4685091972351074
1712835572030407400,18.542407470703125,0.12818217277526855,-1.1814289093017578,2.5051722526550293
1712835572050407400,18.562407470703125,-0.17564761638641357,-0.21852445602416992,2.628042697906494
1712835572070407400,18.582407470703124,-0.17524373531341553,-0.29592370986938477,2.6127395629882812
1712835572090407400,18.602407470703124,0.2559276223182678,-0.08374595642089844,2.552049160003662
1712835572110407400,18.622407470703124,0.25723880529403687,-0.07787895202636719,2.5434012413024902
1712835572130407400,18.642407470703127,0.6715905070304871,0.48503971099853516,0.8716797828674316
1712835572150407700,18.66240771484375,0.6601969599723816,0.22153186798095703,0.8278675079345703
1712835572170407700,18.68240771484375,0.808746337890625,-0.18852806091308594,1.466928482055664
1712835572190407700,18.70240771484375,0.5934990048408508,0.31420230865478516,2.4719643592834473
1712835572210407700,18.72240771484375,-0.5519090890884399,-0.06895923614501953,2.524949550628662
1712835572230407700,18.74240771484375,-0.09365153312683105,-0.8906726837158203,3.7308897972106934
1712835572250407400,18.762407470703124,1.6373136043548584,-0.4178924560546875,4.889787673950195
1712835572270407400,18.782407470703124,2.713939666748047,0.818631649017334,2.1552810668945312
1712835572290407700,18.80240771484375,3.057401418685913,2.2449522018432617,-3.2658166885375977
1712835572310407700,18.82240771484375,1.9707207679748535,0.6732754707336426,-8.32735538482666
1712835572330407700,18.84240771484375,0.3544160723686218,-1.1147942543029785,-10.083487510681152
1712835572350407700,18.86240771484375,-1.5073189735412598,-2.021697998046875,-10.298530578613281
1712835572370407700,18.88240771484375,-2.591482639312744,-1.9852337837219238,-9.326422691345215
1712835572390407400,18.902407470703125,-4.240987777709961,-1.4608407020568848,-6.878077507019043
1712835572410407400,18.922407470703124,-5.402047157287598,-0.40210723876953125,-3.461184024810791
1712835572430407400,18.942407470703124,-4.365345478057861,0.6479063034057617,-1.126225233078003
1712835572450407400,18.962407470703123,-4.17777156829834,0.9637556076049805,1.4504923820495605
1712835572470407400,18.982407470703127,-3.410189390182495,1.692983627319336,3.877824544906616
1712835572490407400,19.002407470703126,-0.4307856559753418,1.9271860122680664,0.8526825904846191
1712835572510407400,19.022407470703126,0.12572765350341797,0.8208179473876953,-1.972637414932251
1712835572530407400,19.042407470703125,-3.391860008239746,0.5173959732055664,-2.4325904846191406
1712835572550407400,19.062407470703125,-4.773845672607422,1.8917903900146484,1.0417892932891846
1712835572570407400,19.082407470703124,-2.8227524757385254,-0.42520999908447266,2.9143126010894775
1712835572590407400,19.102407470703124,-2.3940682411193848,0.9172496795654297,8.411710739135742
1712835572610407400,19.122407470703124,-5.152652263641357,2.2121057510375977,9.420690536499023
1712835572630407400,19.142407470703127,2.763223886489868,5.63934326171875,12.390236854553223
1712835572650407700,19.16240771484375,2.2258095741271973,2.785689353942871,11.544525146484375
1712835572670407700,19.18240771484375,-0.23379802703857422,1.6786127090454102,5.3961405754089355
1712835572690407700,19.20240771484375,-0.34263134002685547,1.5665149688720703,5.184648513793945
1712835572710407700,19.22240771484375,-1.0259690284729004,1.653787612915039,5.050374984741211
1712835572730407700,19.24240771484375,-1.340909481048584,0.2374725341796875,5.941681385040283
1712835572750407400,19.262407470703124,-1.4811091423034668,0.11928749084472656,5.520590782165527
1712835572770407400,19.282407470703124,-1.2947673797607422,-0.5289888381958008,6.23105001449585
1712835572790407700,19.30240771484375,-2.18804931640625,-0.7057867050170898,5.387779712677002
1712835572810407700,19.32240771484375,-2.7115299701690674,-0.10705757141113281,3.031806707382202
1712835572830407700,19.34240771484375,-4.0535078048706055,0.32610321044921875,0.36115431785583496
1712835572850407700,19.36240771484375,-3.3070836067199707,0.8134241104125977,-2.339820623397827
1712835572870407700,19.38240771484375,-2.001798629760742,0.18856239318847656,-4.93193244934082
1712835572890407400,19.402407470703125,-1.218812108039856,-0.9306521415710449,-8.084959030151367
1712835572910407400,19.422407470703124,0.2313045859336853,-2.2598047256469727,-9.971508026123047
1712835572930407400,19.442407470703124,0.6945590376853943,-3.500718593597412,-8.12697982788086
1712835572950407400,19.462407470703123,0.6155641078948975,-3.396442413330078,-4.050109386444092
1712835572970407400,19.482407470703127,-0.2176525890827179,-2.4710960388183594,-1.5786268711090088
1712835572990407400,19.502407470703126,-1.7873435020446777,-1.9153633117675781,-1.466719388961792
1712835573010407400,19.522407470703126,-2.5695180892944336,-1.5513505935668945,-2.3143699169158936
1712835573030407400,19.542407470703125,-2.4836649894714355,-1.6248884201049805,-2.143242120742798
1712835573050407400,19.562407470703125,-1.7479573488235474,0.9091901779174805,4.209174156188965
1712835573070407400,19.582407470703124,-3.4456822872161865,2.3733444213867188,8.854802131652832
1712835573090407400,19.602407470703124,-1.036631464958191,1.2879295349121094,11.47956371307373
1712835573110407400,19.622407470703124,1.7127509117126465,1.6941394805908203,14.166999816894531
1712835573130407400,19.642407470703127,1.408645749092102,3.182331085205078,13.919792175292969
1712835573150407700,19.66240771484375,0.9079110026359558,3.9561338424682617,9.126495361328125
1712835573170407700,19.68240771484375,-1.6931308507919312,5.85683536529541,3.7159523963928223
1712835573190407700,19.70240771484375,-5.405778884887695,5.582233428955078,-2.7018327713012695
1712835573210407700,19.72240771484375,-5.849453926086426,5.708232879638672,-2.873293399810791
1712835573230407700,19.74240771484375,-2.182462692260742,-1.1509180068969727,-5.7011494636535645
1712835573250407400,19.762407470703124,5.100029468536377,0.9830856323242188,0.014781951904296875
1712835573270407400,19.782407470703124,7.231179237365723,-1.4260406494140625,-1.6618752479553223
1712835573290407700,19.80240771484375,-0.32480549812316895,-3.4438114166259766,-6.536807537078857
1712835573310407700,19.82240771484375,-5.8736891746521,-1.67112398147583,-9.405210494995117
1712835573330407700,19.84240771484375,-6.685034275054932,-0.7525229454040527,-9.627178192138672
1712835573350407700,19.86240771484375,-4.773031234741211,-1.992793083190918,-4.550599575042725
1712835573370407700,19.88240771484375,-1.9213013648986816,-2.4156808853149414,0.5469584465026855
1712835573390407400,19.902407470703125,-1.9955536127090454,-4.287993431091309,1.7750375270843506
1712835573410407400,19.922407470703124,-1.8317328691482544,-4.369104385375977,1.824472188949585
1712835573430407400,19.942407470703124,-6.018283843994141,-0.8259997367858887,-1.4782599210739136
1712835573450407400,19.962407470703123,-6.536613464355469,-0.3807792663574219,-3.579056978225708
1712835573470407400,19.982407470703127,-4.3096513748168945,0.3090848922729492,-6.159879684448242
1712835573490407400,20.002407470703126,-3.262928009033203,2.0371532440185547,-8.561440467834473
1712835573510407700,20.02240771484375,-4.547300338745117,4.275355339050293,-8.429825782775879
1712835573530407700,20.04240771484375,-6.037370204925537,6.645139694213867,-5.3622894287109375
1712835573550407700,20.06240771484375,-2.5757362842559814,3.566892623901367,0.23029875755310059
1712835573570407700,20.08240771484375,-1.9907310009002686,3.5111923217773438,0.6432526111602783
1712835573590374700,20.102374755859376,-0.08489596843719482,0.7257347106933594,20.81912612915039
1712835573610341400,20.12234130859375,0.4081810712814331,0.7892160415649414,21.01407241821289
1712835573630307800,20.142307861328124,-1.0294897556304932,1.8169403076171875,10.362764358520508
1712835573650274600,20.162274658203124,3.52628231048584,2.3655099868774414,7.819995880126953
1712835573670241300,20.1822412109375,5.268299102783203,2.6439151763916016,2.874724864959717
1712835573690208000,20.2022080078125,3.3178982734680176,2.0579423904418945,-1.627577304840088
1712835573710174700,20.2221748046875,0.5910160541534424,1.2892522811889648,-2.63279128074646
1712835573730141200,20.24214111328125,-0.49782800674438477,-0.48239994049072266,-2.1252899169921875
1712835573750107600,20.262107666015623,0.5756809711456299,-1.8579797744750977,-1.5737789869308472
1712835573770074400,20.282074462890623,0.010280013084411621,-1.2282748222351074,-0.7648646831512451
1712835573790041000,20.302041015625,-1.5900650024414062,-0.8069686889648438,-0.5403401851654053
1712835573810007600,20.322007568359375,-1.6336866617202759,-0.7894277572631836,-0.616560697555542
1712835573829974300,20.341974365234375,-1.605966329574585,-1.4022512435913086,1.3382134437561035
1712835573849941000,20.36194091796875,-0.9441472291946411,-1.5527472496032715,2.3849077224731445
1712835573869907700,20.38190771484375,-0.7760777473449707,-1.7932109832763672,2.8138267993927
1712835573889874200,20.401874267578126,-0.8057352304458618,-1.8040103912353516,2.827883243560791
1712835573909840600,20.421840576171874,-0.18862521648406982,-2.066380500793457,2.4050796031951904
1712835573929807400,20.441807373046874,0.08285307884216309,-2.1200714111328125,1.0123391151428223
1712835573949774000,20.461774169921874,-0.23948097229003906,-2.3838605880737305,0.5682504177093506
1712835573969740800,20.48174072265625,-0.24788284301757812,-2.4029245376586914,0.6194732189178467
1712835573989707500,20.50170751953125,-0.34792089462280273,-2.1113157272338867,-0.2778279781341553
1712835574009674200,20.52167431640625,-0.028966069221496582,-1.7767009735107422,-0.40984320640563965
1712835574029640700,20.541640625,-0.34090566635131836,-2.217555522918701,-0.4585299491882324
1712835574049607400,20.561607421875,-0.2276303768157959,-2.485672950744629,0.3513374328613281
1712835574069574100,20.58157421875,-0.015039443969726562,-1.02978515625,1.4715309143066406
1712835574089541000,20.601541015625,-0.5494805574417114,3.176891326904297,3.0437443256378174
1712835574109507600,20.621507568359377,-1.2410849332809448,5.616209983825684,6.484731674194336
1712835574129474000,20.64147412109375,-1.341574788093567,5.588288307189941,6.526615142822266
1712835574149440800,20.661440673828125,6.338765621185303,2.51138973236084,10.425138473510742
1712835574169407500,20.681407470703125,3.3342719078063965,3.2355031967163086,10.026250839233398
1712835574189406700,20.70140673828125,2.890817880630493,3.2653141021728516,9.766115188598633
1712835574209406700,20.72140673828125,-2.9525251388549805,5.681375503540039,-0.5967960357666016
1712835574229406700,20.74140673828125,-2.7339541912078857,5.073014259338379,-4.008736610412598
1712835574249406700,20.76140673828125,-5.827360153198242,2.155050277709961,-4.043634414672852
1712835574269406700,20.78140673828125,-1.6555562019348145,1.5197076797485352,0.7434086799621582
1712835574289406700,20.80140673828125,6.148277759552002,-0.43817901611328125,0.742239236831665
1712835574309406700,20.82140673828125,2.8418405055999756,-4.305595874786377,-3.098284959793091
1712835574329406700,20.84140673828125,-2.713531255722046,-1.2756743431091309,-8.008584022521973
1712835574349406700,20.86140673828125,-8.68751049041748,-0.49968528747558594,-9.474897384643555
1712835574369406700,20.88140673828125,-7.484984397888184,-3.3631234169006348,-4.058935165405273
1712835574389406700,20.90140673828125,-4.856583595275879,-4.236832618713379,1.2284631729125977
1712835574409406700,20.92140673828125,-3.8946073055267334,-4.647917747497559,2.0332748889923096
1712835574429406700,20.94140673828125,-3.99082088470459,-4.16936731338501,0.15889978408813477
1712835574449406700,20.96140673828125,-5.067221164703369,-2.9198107719421387,-2.0686593055725098
1712835574469406700,20.98140673828125,-5.160575866699219,-2.67716121673584,-4.499145030975342
1712835574489406700,21.00140673828125,-3.312530040740967,-1.5568013191223145,-6.187755107879639
1712835574509407000,21.021406982421876,-2.2581496238708496,-0.17756080627441406,-8.027379989624023
1712835574529407000,21.041406982421876,-1.4939290285110474,2.025890350341797,-8.24183464050293
1712835574549407000,21.061406982421875,-1.7528935670852661,5.200713157653809,-7.142816543579102
1712835574569407000,21.081406982421875,-1.6671534776687622,6.380255699157715,-4.105199813842773
1712835574589407000,21.101406982421874,0.7063087821006775,4.597826957702637,2.788712978363037
1712835574609407000,21.121406982421874,-0.3978691101074219,1.6791572570800781,11.368864059448242
1712835574629407000,21.141406982421874,-4.283319473266602,1.3426494598388672,17.32720375061035
1712835574649407000,21.161406982421877,-3.8702104091644287,1.4064111709594727,17.444482803344727
1712835574669407000,21.181406982421876,0.5753918886184692,1.4690847396850586,9.561518669128418
1712835574689406700,21.20140673828125,0.605859637260437,1.479517936706543,9.548367500305176
1712835574709406700,21.22140673828125,5.763713836669922,2.37515926361084,1.845084547996521
1712835574729406700,21.24140673828125,3.1139779090881348,2.4864959716796875,-1.7475059032440186
1712835574749406700,21.26140673828125,-0.23554491996765137,1.659515380859375,-2.868199348449707
1712835574769406700,21.28140673828125,-0.5025502443313599,-0.5625944137573242,-2.1750545501708984
1712835574789407000,21.301406982421874,-0.16553771495819092,-1.8903746604919434,-1.155554175376892
1712835574809407000,21.321406982421873,-0.7324810028076172,-2.3530426025390625,-0.416485071182251
1712835574829407000,21.341406982421876,-1.346083402633667,-2.5340328216552734,0.2096858024597168
1712835574849407000,21.361406982421876,-1.9785397052764893,-2.373124599456787,1.3413865566253662
1712835574869407000,21.381406982421876,-1.985560417175293,-2.1118435859680176,2.5354700088500977
1712835574889407000,21.401406982421875,-1.2173742055892944,-2.12807035446167,2.749434471130371
1712835574909407000,21.421406982421875,-0.7053167819976807,-1.773756980895996,2.329190492630005
1712835574929407000,21.441406982421874,-0.08775746822357178,-1.5869603157043457,1.2766532897949219
1712835574949373700,21.461373779296874,0.04085433483123779,-1.7080268859863281,0.31191110610961914
1712835574969340400,21.48134033203125,0.36820292472839355,-1.7348461151123047,-0.29939699172973633
1712835574989307100,21.50130712890625,0.26601922512054443,-1.5493512153625488,-1.010955572128296
1712835575009273900,21.52127392578125,-0.615652322769165,-1.338862419128418,-0.9651069641113281
1712835575029240300,21.541240234375,-0.9371289014816284,-1.0374832153320312,0.17952179908752441
1712835575049207000,21.56120703125,-0.4930797815322876,0.4311695098876953,2.5859551429748535
1712835575069173800,21.581173828125,0.8727120161056519,1.0615339279174805,4.427500247955322
1712835575089140500,21.601140380859373,0.8032281398773193,1.0321197509765625,4.507678031921387
1712835575109107000,21.62110693359375,4.016355991363525,2.3470258712768555,6.686114311218262
1712835575129073400,21.641073486328125,4.84917688369751,2.174607276916504,7.290839195251465
1712835575149040000,21.6610400390625,4.430598735809326,2.1618576049804688,7.201403617858887
1712835575169006800,21.6810068359375,0.7912381887435913,3.9871063232421875,2.3682756423950195
1712835575188973600,21.7009736328125,-0.32486090064048767,5.016058921813965,-2.638820171356201
1712835575208940000,21.72093994140625,-1.1316126585006714,2.8497438430786133,-4.245397090911865
1712835575228907000,21.740906982421876,-4.170985698699951,0.39324188232421875,-3.812678098678589
1712835575248873700,21.760873779296876,0.20243024826049805,1.0987234115600586,2.357062816619873
1712835575268840400,21.78084033203125,7.492701530456543,0.058402061462402344,0.43439292907714844
1712835575288807200,21.80080712890625,2.883223533630371,-2.38076114654541,-2.0778920650482178
1712835575308774000,21.82077392578125,-6.409934997558594,0.2421865463256836,-5.6610894203186035
1712835575328740400,21.840740234375,-10.89293098449707,0.828577995300293,-6.829782962799072
1712835575348707000,21.86070703125,-7.440556526184082,-2.7477874755859375,-0.4338502883911133
1712835575368674000,21.880674072265624,-5.474337100982666,-4.117929935455322,5.304118633270264
1712835575388640800,21.900640869140624,-4.792508602142334,-5.479953765869141,4.355560779571533
1712835575408607500,21.920607421875,-4.830813407897949,-4.236446380615234,0.8722689151763916
1712835575428574200,21.94057421875,-4.060290813446045,-2.3793416023254395,-1.9768012762069702
1712835575448540700,21.960540771484375,-1.1135538816452026,-1.2123537063598633,-4.5836663246154785
1712835575468507400,21.98050732421875,0.7863162755966187,0.6062202453613281,-7.892758369445801
1712835575488474000,22.00047412109375,-0.27977752685546875,1.4942588806152344,-11.737384796142578
1712835575508440800,22.02044091796875,-3.839573860168457,2.2435197830200195,-11.567852020263672
1712835575528407300,22.0404072265625,-5.6145710945129395,4.623597145080566,-8.125174522399902
1712835575548407300,22.0604072265625,-1.1638082265853882,5.133063316345215,-2.466827630996704
1712835575568407300,22.0804072265625,-1.7825992107391357,2.4823989868164062,9.223261833190918
1712835575588407300,22.1004072265625,-1.6626646518707275,1.7737817764282227,22.673049926757812
1712835575608407300,22.1204072265625,-3.2763142585754395,1.2120046615600586,18.652223587036133
1712835575628407300,22.1404072265625,-1.1864855289459229,1.6294050216674805,10.082350730895996
1712835575648407300,22.1604072265625,3.022284984588623,1.545119285583496,7.739314079284668
1712835575668407300,22.1804072265625,5.96306037902832,1.4172697067260742,3.1483891010284424
1712835575688407300,22.2004072265625,4.498138427734375,1.450124740600586,-2.224869728088379
1712835575708407300,22.2204072265625,0.6470339298248291,1.8209400177001953,-4.53083610534668
1712835575728407800,22.24040771484375,-1.5485931634902954,0.10212230682373047,-3.649980068206787
1712835575748407800,22.26040771484375,0.09759318828582764,-1.952639102935791,-1.653001308441162
1712835575768407800,22.28040771484375,0.6433771848678589,-2.1513757705688477,-0.1913740634918213
1712835575788407800,22.30040771484375,-0.6618728637695312,-2.0459485054016113,-0.5815958976745605
1712835575808407800,22.32040771484375,-1.8699887990951538,-1.584052562713623,-0.4286842346191406
1712835575828407300,22.3404072265625,-1.981009602546692,-1.4991154670715332,0.9152944087982178
1712835575848407300,22.3604072265625,-0.9949880838394165,-1.947160243988037,2.32879638671875
1712835575868407800,22.38040771484375,-0.03207743167877197,-2.058689594268799,2.9918789863586426
1712835575888407800,22.40040771484375,-0.08618330955505371,-1.5355205535888672,2.32263445854187
1712835575908407800,22.42040771484375,-0.34423816204071045,-1.2513132095336914,1.0334670543670654
1712835575928407800,22.44040771484375,-0.45104944705963135,-1.474700927734375,0.35179686546325684
1712835575948407800,22.46040771484375,-0.389904260635376,-2.1085076332092285,-0.04789900779724121
1712835575968407300,22.4804072265625,-0.11468017101287842,-2.8585267066955566,-0.5277888774871826
1712835575988407300,22.5004072265625,0.4322121739387512,-3.25461483001709,-0.7189202308654785
1712835576008407300,22.5204072265625,0.21274060010910034,-3.2657952308654785,-0.8140048980712891
1712835576028407300,22.5404072265625,-0.31232142448425293,-0.6636428833007812,0.615664005279541
1712835576048407300,22.5604072265625,-0.9717326164245605,4.379738807678223,3.2459042072296143
1712835576068407300,22.5804072265625,-0.3055328130722046,4.341517448425293,5.5704169273376465
1712835576088407300,22.6004072265625,3.8915181159973145,2.4539222717285156,7.629209518432617
1712835576108407300,22.6204072265625,5.444437026977539,2.321563720703125,10.268553733825684
1712835576128407300,22.6404072265625,3.2450079917907715,4.4941606521606445,11.708057403564453
1712835576148407300,22.6604072265625,-0.28274255990982056,5.423348426818848,7.093533039093018
1712835576168407300,22.6804072265625,-1.9484797716140747,5.671059608459473,0.5384373664855957
1712835576188407300,22.7004072265625,-3.5845444202423096,4.577845573425293,-3.407925605773926
1712835576208407300,22.7204072265625,-0.9424266815185547,3.544915199279785,-4.193549633026123
1712835576228407800,22.74040771484375,4.65192985534668,1.8616533279418945,-3.0323386192321777
1712835576248407800,22.76040771484375,4.170723915100098,-1.1613125801086426,-3.8548431396484375
1712835576268407800,22.78040771484375,-1.459949016571045,-1.6958961486816406,-7.085495471954346
1712835576288407800,22.80040771484375,-7.894050598144531,-0.5141077041625977,-9.813237190246582
1712835576308407800,22.82040771484375,-10.103721618652344,-3.1603827476501465,-4.8897199630737305
1712835576328407300,22.8404072265625,-7.651942729949951,-5.576939582824707,2.2443838119506836
1712835576348407300,22.8604072265625,-6.511064529418945,-6.12780237197876,5.802501678466797
1712835576368407800,22.88040771484375,-6.894400596618652,-6.6398725509643555,5.150361061096191
1712835576388407800,22.90040771484375,-6.791324615478516,-5.932675361633301,1.2487237453460693
1712835576408407800,22.92040771484375,-3.3781185150146484,-2.7062058448791504,-3.321913480758667
1712835576428407800,22.94040771484375,-2.9702515602111816,-2.7995457649230957,-3.359808921813965
1712835576448407800,22.96040771484375,2.4629416465759277,3.744783401489258,-10.568472862243652
1712835576468407300,22.9804072265625,0.10823225975036621,2.969942092895508,-9.38949966430664
1712835576488407300,23.0004072265625,-0.6304730772972107,3.501922607421875,-6.85220193862915
1712835576508407300,23.0204072265625,-1.6981394290924072,3.1213254928588867,-4.480361461639404
1712835576528407300,23.0404072265625,-2.584383487701416,0.2403268814086914,0.07984066009521484
1712835576548407300,23.0604072265625,-6.284749507904053,1.1078128814697266,9.85241985321045
1712835576568407300,23.0804072265625,-9.081245422363281,2.60488224029541,19.281444549560547
1712835576588407300,23.1004072265625,-8.591461181640625,2.7014217376708984,19.241046905517578
1712835576608407300,23.1204072265625,4.724085807800293,1.2115983963012695,9.45866584777832
1712835576628407300,23.1404072265625,8.245656967163086,2.180196762084961,6.093541145324707
1712835576648407300,23.1604072265625,6.4952392578125,1.7763385772705078,0.19959807395935059
1712835576668407300,23.1804072265625,2.313607692718506,2.6715173721313477,-3.7565231323242188
1712835576688407300,23.2004072265625,-1.9401161670684814,1.763218879699707,-4.833246231079102
1712835576708407300,23.2204072265625,-1.6665124893188477,-1.4089956283569336,-3.344259023666382
1712835576728407800,23.24040771484375,-0.9073308706283569,-2.243401527404785,-1.5965937376022339
1712835576748407800,23.26040771484375,-1.1208988428115845,-2.292330741882324,0.5512294769287109
1712835576768407800,23.28040771484375,-1.6774256229400635,-2.272062301635742,1.8679447174072266
1712835576788407800,23.30040771484375,-1.2976137399673462,-1.7074179649353027,2.7717068195343018
1712835576808407800,23.32040771484375,-1.0339984893798828,-1.4133753776550293,2.668067455291748
1712835576828407300,23.3404072265625,-1.2021862268447876,-1.4309144020080566,1.8188064098358154
1712835576848407300,23.3604072265625,-0.9697147607803345,-1.3548164367675781,1.1168086528778076
1712835576868407800,23.38040771484375,-0.8090109825134277,-1.2904038429260254,0.5593562126159668
1712835576888407800,23.40040771484375,-0.7768725156784058,-0.9212141036987305,0.15283703804016113
1712835576908407800,23.42040771484375,-0.5619938969612122,-0.8395586013793945,-0.12329292297363281
1712835576928407800,23.44040771484375,-0.26686692237854004,-1.180483341217041,0.19200801849365234
1712835576948407800,23.46040771484375,0.0177382230758667,-1.8186845779418945,0.43541932106018066
1712835576968407300,23.4804072265625,0.4380907416343689,-2.263852119445801,0.5039820671081543
1712835576988407300,23.5004072265625,1.1554691791534424,-2.3343405723571777,0.41259145736694336
1712835577008407300,23.5204072265625,0.7455400824546814,-2.148922920227051,-0.42242860794067383
1712835577028407300,23.5404072265625,-0.5514470338821411,-1.3355655670166016,-0.6546671390533447
1712835577048407300,23.5604072265625,-1.431597113609314,-0.33660411834716797,1.044081211090088
1712835577068407300,23.5804072265625,-0.12058806419372559,1.9637947082519531,3.4124488830566406
1712835577088407300,23.6004072265625,1.409395456314087,3.4833192825317383,5.275292873382568
1712835577108407300,23.6204072265625,4.671365261077881,2.3575973510742188,7.419872283935547
1712835577128407300,23.6404072265625,5.835939407348633,1.172410011291504,9.009206771850586
1712835577148407300,23.6604072265625,3.2312512397766113,3.0707225799560547,8.60772705078125
1712835577168407300,23.6804072265625,0.3248758018016815,4.044724464416504,5.635113716125488
1712835577188407300,23.7004072265625,-2.9156627655029297,5.125007629394531,0.41405630111694336
1712835577208407300,23.7204072265625,-2.442685127258301,5.154356002807617,-3.586477756500244
1712835577228407800,23.74040771484375,4.150790214538574,4.712306022644043,-3.0177111625671387
1712835577248407800,23.76040771484375,3.455042600631714,4.84426212310791,-2.88435435295105
1712835577268407800,23.78040771484375,-1.1757230758666992,-1.8115606307983398,-6.321497440338135
1712835577288407800,23.80040771484375,-4.154363632202148,-0.9522061347961426,-7.806222915649414
1712835577308407800,23.82040771484375,-5.345842361450195,0.29917335510253906,-5.4321393966674805
1712835577328407300,23.8404072265625,-5.476614952087402,0.3535442352294922,-5.4284162521362305
1712835577348407300,23.8604072265625,-5.579846382141113,-3.242408275604248,4.592984199523926
1712835577368407800,23.88040771484375,-5.527858257293701,-3.9849252700805664,4.392701148986816
1712835577388407800,23.90040771484375,-6.2190046310424805,-2.6617536544799805,3.5309247970581055
1712835577408407800,23.92040771484375,-5.605644226074219,-2.843850612640381,1.3512476682662964
1712835577428407800,23.94040771484375,-5.213994979858398,-2.9200353622436523,-0.7731317281723022
1712835577448407800,23.96040771484375,-4.929103851318359,-3.0116395950317383,-0.8465821743011475
1712835577468407300,23.9804072265625,-4.332505226135254,-0.8767271041870117,-5.1923747062683105
1712835577488407300,24.0004072265625,-1.8093595504760742,0.15320110321044922,-8.027920722961426
1712835577508407300,24.0204072265625,-2.2467153072357178,1.0336742401123047,-9.957315444946289
1712835577528407300,24.0404072265625,-1.4107882976531982,4.157286643981934,-9.084766387939453
1712835577548407300,24.0604072265625,-0.9236923456192017,6.857585906982422,-7.276991844177246
1712835577568407300,24.0804072265625,-0.34543487429618835,3.6987667083740234,-1.1030242443084717
1712835577588407300,24.1004072265625,-0.6999781131744385,1.199183464050293,16.6983642578125
1712835577608407300,24.1204072265625,-0.3125835657119751,0.641636848449707,26.901838302612305
1712835577628407300,24.1404072265625,-1.4776870012283325,1.4586267471313477,18.123065948486328
1712835577648407300,24.1604072265625,1.3018794059753418,1.3406867980957031,8.644367218017578
1712835577668407300,24.1804072265625,2.1060702800750732,3.5493125915527344,3.6654341220855713
1712835577688407300,24.2004072265625,2.8496346473693848,4.4453535079956055,-3.3487179279327393
1712835577708407300,24.2204072265625,1.2543442249298096,2.851991653442383,-6.547189712524414
1712835577728407800,24.24040771484375,-0.8910499811172485,1.2428312301635742,-4.208713531494141
1712835577748407800,24.26040771484375,-0.2589951753616333,-0.9398117065429688,-2.071235179901123
1712835577768407800,24.28040771484375,1.5532865524291992,-1.3623228073120117,-0.7303595542907715
1712835577788407800,24.30040771484375,1.0193564891815186,-1.1993069648742676,-0.34549403190612793
1712835577808407800,24.32040771484375,-0.2868936061859131,-1.232652187347412,-0.14829158782958984
1712835577828407300,24.3404072265625,-1.5687370300292969,-1.9503374099731445,0.5744683742523193
1712835577848407300,24.3604072265625,-2.1552419662475586,-2.564913272857666,1.0749943256378174
1712835577868407800,24.38040771484375,-1.8723969459533691,-2.3672075271606445,1.5050818920135498
1712835577888407800,24.40040771484375,-1.173776626586914,-1.6390423774719238,1.4739885330200195
1712835577908407800,24.42040771484375,-0.9783175587654114,-1.4025039672851562,1.1146049499511719
1712835577928407800,24.44040771484375,-1.2606267929077148,-1.3858680725097656,0.8348374366760254
1712835577948407800,24.46040771484375,-1.626908302307129,-1.7274212837219238,0.41530823707580566
1712835577968407300,24.4804072265625,-1.2859491109848022,-2.463906764984131,0.06619882583618164
1712835577988407300,24.5004072265625,-0.7594447135925293,-3.3718204498291016,-0.033701419830322266
1712835578008407300,24.5204072265625,0.1391761302947998,-3.7712903022766113,-0.44582390785217285
1712835578028407300,24.5404072265625,-0.37297964096069336,-3.325096607208252,-0.7615354061126709
1712835578048407300,24.5604072265625,-0.010963261127471924,-2.819617748260498,-0.68365478515625
1712835578068407300,24.5804072265625,0.3610571324825287,-1.552037239074707,0.0414278507232666
1712835578088407300,24.6004072265625,0.059080541133880615,2.5624923706054688,2.371332883834839
1712835578108407300,24.6204072265625,0.6258443593978882,5.080121040344238,5.423051357269287
1712835578128407300,24.6404072265625,5.242210388183594,2.101320266723633,7.173614501953125
1712835578148407300,24.6604072265625,5.171209335327148,2.4513626098632812,8.982623100280762
1712835578168407300,24.6804072265625,2.4977376461029053,4.483148574829102,8.78371810913086
1712835578188407300,24.7004072265625,0.6677651405334473,4.138907432556152,4.656407356262207
1712835578208407300,24.7204072265625,-0.7839126586914062,4.362486839294434,0.841031551361084
1712835578228407800,24.74040771484375,-1.6387791633605957,3.8701133728027344,-3.016073703765869
1712835578248407800,24.76040771484375,-2.8902416229248047,1.5899763107299805,-5.226438522338867
1712835578268407800,24.78040771484375,-1.742821216583252,0.2889671325683594,-4.639188289642334
1712835578288407800,24.80040771484375,3.311535120010376,1.3370351791381836,-1.7323501110076904
1712835578308407800,24.82040771484375,4.067867279052734,-0.3706188201904297,-2.6718528270721436
1712835578328407300,24.8404072265625,-0.17627573013305664,-1.0432424545288086,-4.035656929016113
1712835578348407300,24.8604072265625,-5.261102199554443,0.1184091567993164,-5.650932312011719
1712835578368407800,24.88040771484375,-8.144076347351074,-0.6477594375610352,-2.579988956451416
1712835578388407800,24.90040771484375,-7.298691749572754,-3.3838248252868652,3.195065975189209
1712835578408407800,24.92040771484375,-5.358569145202637,-4.584866046905518,6.093257427215576
1712835578428407800,24.94040771484375,-4.0846357345581055,-5.205986022949219,4.688473701477051
1712835578448407800,24.96040771484375,-3.4606618881225586,-3.6847686767578125,1.845944881439209
1712835578468407300,24.9804072265625,-3.3479533195495605,-1.840195655822754,-1.4575778245925903
1712835578488407300,25.0004072265625,-2.421539783477783,-0.08308792114257812,-4.622248649597168
1712835578508407300,25.0204072265625,0.7439837455749512,2.7940282821655273,-7.592917442321777
1712835578528407300,25.0404072265625,2.1348373889923096,5.727018356323242,-11.847260475158691
1712835578548407300,25.0604072265625,-1.330920934677124,3.8587827682495117,-11.661882400512695
1712835578568407300,25.0804072265625,-4.737276554107666,0.07819271087646484,-6.1582865715026855
1712835578588407300,25.1004072265625,-7.5809855461120605,0.17488956451416016,1.265721321105957
1712835578608407300,25.1204072265625,-4.998607158660889,1.710866928100586,12.560600280761719
1712835578628407300,25.1404072265625,-1.740166425704956,-1.2180118560791016,15.179887771606445
