time,seconds_elapsed,z,y,x
1712835553549575200,0.0615751953125,-0.0007635815418325365,0.020082194358110428,0.12056952714920044
1712835553571584000,0.083583984375,-0.013591751456260681,-0.0342848114669323,0.12973250448703766
1712835553591575000,0.103574951171875,-0.01725694350898266,-0.05871942266821861,0.14133894443511963
1712835553611575000,0.123574951171875,-0.032528575509786606,-0.07338018715381622,0.14133894443511963
1712835553631575000,0.143574951171875,-0.02825251780450344,-0.012293662875890732,0.1578323096036911
1712835553651575000,0.163574951171875,-0.06062837690114975,-0.020845776423811913,0.1779908537864685
1712835553671575000,0.183574951171875,-0.07895433157682419,-0.05994115397334099,0.17127133905887604
1712835553691575000,0.203574951171875,-0.08994990587234497,-0.10758864134550095,0.1376737505197525
1712835553711575000,0.223574951171875,-0.09117163717746735,-0.1295797973871231,0.12851077318191528
1712835553731575000,0.243574951171875,-0.06490442901849747,-0.07215845584869385,0.20731239020824432
1712835553751575000,0.263574951171875,-0.02275473065674305,0.06956227868795395,0.3032182455062866
1712835553771575000,0.283574951171875,0.06765332818031311,0.17890715599060059,0.44799330830574036
1712835553791575000,0.303574951171875,0.24602597951889038,0.4800637364387512,0.5976552963256836
1712835553811575000,0.323574951171875,0.42500948905944824,1.1978304386138916,0.4803691506385803
1712835553831575000,0.343574951171875,1.0364855527877808,2.307772636413574,0.20059287548065186
1712835553851575000,0.363574951171875,1.4873042106628418,3.1434361934661865,0.08941540122032166
1712835553871575000,0.383574951171875,2.6051876544952393,3.7597992420196533,0.011835514567792416
1712835553891575000,0.403574951171875,2.0059287548065186,4.543539524078369,0.2482403665781021
1712835553911575000,0.423574951171875,1.2240211963653564,3.9729912281036377,0.2690097689628601
1712835553931575600,0.443575439453125,1.6198619604110718,2.6975045204162598,0.08391761034727097
1712835553951575600,0.463575439453125,2.104278087615967,2.0683133602142334,0.14561499655246735
1712835553971575600,0.483575439453125,2.2203423976898193,2.078087091445923,0.19570595026016235
1712835553991575600,0.503575439453125,2.2405009269714355,2.3254876136779785,0.09124799817800522
1712835554011575600,0.523575439453125,2.2618813514709473,2.7555367946624756,-0.02848159149289131
1712835554031575600,0.543575439453125,2.4384212493896484,3.027982711791992,-0.04253149405121803
1712835554051575600,0.563575439453125,2.671160936355591,3.172757625579834,-0.0009926559869199991
1712835554071576000,0.583576171875,2.7456865310668945,3.373732328414917,0.00939205288887024
1712835554091576000,0.603576171875,2.7505733966827393,3.454977512359619,0.03199406713247299
1712835554111576000,0.623576171875,2.7701210975646973,3.5056793689727783,-0.0022143865935504436
1712835554131576000,0.643576171875,2.8244881629943848,3.2350659370422363,-0.03520110994577408
1712835554151576000,0.663576171875,2.8990137577056885,2.636418104171753,-0.0016035212902352214
1712835554171576000,0.683576171875,2.8067731857299805,1.9956203699111938,0.06986771523952484
1712835554191576000,0.703576171875,2.6259570121765137,1.3487141132354736,0.18654297292232513
1712835554211576000,0.723576171875,2.389552116394043,1.0542770624160767,0.2879466116428375
1712835554231576000,0.743576171875,2.1140518188476562,0.8807913064956665,0.3691916763782501
1712835554251576000,0.763576171875,1.8012888431549072,0.6223953366279602,0.4418846368789673
1712835554271576000,0.783576171875,1.533729910850525,0.27114781737327576,0.4406629204750061
1712835554291576000,0.803576171875,1.0847439765930176,0.026801712810993195,0.5292384028434753
1712835554311576000,0.823576171875,0.7524332404136658,0.0029779679607599974,0.5927683711051941
1712835554331576000,0.843576171875,0.6418666839599609,0.2882520258426666,0.6336963176727295
1712835554351407600,0.86340771484375,0.5429064631462097,0.6822600960731506,0.6905068159103394
1712835554371407600,0.88340771484375,0.4280638098716736,1.04694664478302,0.7943539023399353
1712835554391407600,0.90340771484375,0.3364340364933014,1.0823768377304077,0.8016842603683472
1712835554411407600,0.92340771484375,0.25824329257011414,0.8349764347076416,0.7601454257965088
1712835554431407900,0.943407958984375,0.20204368233680725,0.42875105142593384,0.6624069809913635
1712835554451408000,0.963407958984375,0.1843285858631134,0.041462477296590805,0.6104834675788879
1712835554471407900,0.983407958984375,0.2405281960964203,-0.15401439368724823,0.609872579574585
1712835554491408000,1.003407958984375,0.3254384696483612,-0.22792910039424896,0.6281985640525818
1712835554511407900,1.023407958984375,0.385303258895874,-0.22426390647888184,0.5616142153739929
1712835554531407600,1.04340771484375,0.4060726761817932,0.02496911771595478,0.4260021448135376
1712835554551407600,1.06340771484375,0.3315471112728119,0.41103595495224,0.2690097689628601
1712835554571408000,1.083407958984375,0.12079860270023346,0.6798166632652283,0.13950635492801666
1712835554591407900,1.103407958984375,-0.07467827945947647,0.7653377652168274,-0.004657847341150045
1712835554611408000,1.123407958984375,-0.15225815773010254,0.7897723913192749,-0.15859588980674744
1712835554631407900,1.143407958984375,-0.1840231567621231,0.5985715985298157,-0.20746511220932007
1712835554651408000,1.163407958984375,-0.14553864300251007,0.4104250967502594,-0.2166280895471573
1712835554671407600,1.18340771484375,-0.08567385375499725,0.2027309089899063,-0.18241962790489197
1712835554691407600,1.20340771484375,-0.10094548016786575,0.04818199574947357,-0.1298852264881134
1712835554711407600,1.22340771484375,-0.16264286637306213,0.18012888729572296,-0.17936530709266663
1712835554731407600,1.24340771484375,-0.32818734645843506,0.5209916830062866,-0.24411702156066895
1712835554751407600,1.26340771484375,-0.5108360648155212,0.7781659364700317,-0.2526691257953644
1712835554771407600,1.28340771484375,-0.7380779385566711,1.1074223518371582,-0.11339186131954193
1712835554791407600,1.30340771484375,-1.0422887802124023,1.095815896987915,0.007559457328170538
1712835554811407600,1.32340771484375,-1.2383766174316406,0.8355873227119446,0.11568260937929153
1712835554831407600,1.34340771484375,-1.2084441184997559,0.18135061860084534,0.2897791862487793
1712835554851407600,1.36340771484375,-1.097266674041748,-0.7599927186965942,0.5634468197822571
1712835554871407600,1.38340771484375,-1.049619197845459,-1.757535696029663,0.7204391956329346
1712835554891407600,1.40340771484375,-0.9659306406974792,-2.672611713409424,0.913472592830658
1712835554911407600,1.42340771484375,-0.7771732807159424,-3.287142276763916,1.1382709741592407
1712835554931408000,1.443407958984375,-0.6055201888084412,-3.7434585094451904,1.1755337715148926
1712835554951407900,1.463407958984375,-0.6250678896903992,-3.8601338863372803,1.1034517288208008
1712835554971408000,1.483407958984375,-0.5725334286689758,-3.4392476081848145,1.0490846633911133
1712835554991407900,1.503407958984375,-0.6177374720573425,-3.0708959102630615,1.010600209236145
1712835555011374600,1.52337451171875,-0.803440511226654,-2.8357129096984863,1.1572078466415405
1712835555031340800,1.5433408203125,-0.9702067375183105,-2.7996718883514404,1.0765736103057861
1712835555051307500,1.5633076171875,-1.1223121881484985,-2.8442649841308594,0.7625889182090759
1712835555071274200,1.583274169921875,-1.1308642625808716,-2.376953125,0.3905719518661499
1712835555091241000,1.603240966796875,-1.0477865934371948,-1.3256539106369019,-0.13782647252082825
1712835555111207400,1.62320751953125,-1.0569496154785156,0.03779728710651398,-0.3522401750087738
1712835555131174100,1.643174072265625,-0.42470407485961914,1.6083317995071411,-0.9698249101638794
1712835555151141000,1.66314111328125,0.7261660695075989,2.8331165313720703,-1.0663416385650635
1712835555171107600,1.683107666015625,1.2557861804962158,3.379230260848999,-0.4841870665550232
1712835555191074000,1.703073974609375,1.337031364440918,3.186196804046631,-0.5837581157684326
1712835555211040800,1.723040771484375,1.7316502332687378,2.957122325897217,-0.9148470759391785
1712835555231007500,1.743007568359375,1.7854063510894775,2.561892509460449,-1.187903881072998
1712835555250974200,1.76297412109375,1.5850425958633423,1.7384461164474487,-1.2886966466903687
1712835555270941000,1.78294091796875,1.6614007949829102,0.5686391592025757,-1.119486927986145
1712835555290907600,1.80290771484375,1.8257235288619995,-0.0012980886967852712,-0.6497315168380737
1712835555310874400,1.822874267578125,1.8275561332702637,0.5710826516151428,-0.18913915753364563
1712835555330841000,1.842841064453125,1.810451865196228,1.5276975631713867,-0.3009274899959564
1712835555350807800,1.862807861328125,1.5471689701080322,2.346867799758911,-0.8384889364242554
1712835555370774500,1.8827744140625,1.2093604803085327,2.960176706314087,-1.3143529891967773
1712835555390741000,1.902740966796875,0.9094256162643433,3.2937090396881104,-1.537929654121399
1712835555410707700,1.922707763671875,0.8251262307167053,3.7457492351531982,-1.5605316162109375
1712835555430674400,1.94267431640625,0.5007568001747131,4.051181793212891,-2.0070741176605225
1712835555450641200,1.96264111328125,-0.21395555138587952,3.875863552093506,-2.3564889430999756
1712835555470608000,1.98260791015625,-0.8486445546150208,3.2020792961120605,-2.055943250656128
1712835555490574300,2.00257421875,-0.5535966157913208,1.9443076848983765,-1.545259952545166
1712835555510541000,2.022541015625,-0.19624045491218567,0.23999367654323578,-1.3167964220046997
1712835555530507500,2.042507568359375,-0.3959933817386627,-1.1448378562927246,-1.33573317527771
1712835555550474200,2.06247412109375,-0.43997567892074585,-1.8943694829940796,-1.3510048389434814
1712835555570440700,2.082440673828125,-0.01970040425658226,-2.2614994049072266,-1.0119746923446655
1712835555590407400,2.102407470703125,0.5209153294563293,-2.318920850753784,-0.5996406078338623
1712835555610407400,2.122407470703125,0.841008722782135,-2.18453049659729,-0.18241962790489197
1712835555630407400,2.142407470703125,1.0114401578903198,-2.103285312652588,0.41867175698280334
1712835555650407700,2.16240771484375,1.1317806243896484,-2.1503219604492188,1.0380891561508179
1712835555670407700,2.18240771484375,1.0853548049926758,-2.3091468811035156,1.4620295763015747
1712835555690407700,2.20240771484375,1.0450377464294434,-2.3390793800354004,1.838322639465332
1712835555710407700,2.22240771484375,1.1091785430908203,-2.633516311645508,2.0857229232788086
1712835555730407700,2.24240771484375,1.0254900455474854,-3.1203761100769043,2.4424684047698975
1712835555750407400,2.262407470703125,0.5093088746070862,-3.9413788318634033,2.848693609237671
1712835555770407400,2.282407470703125,-0.4460843503475189,-4.879056930541992,2.7631726264953613
1712835555790407700,2.30240771484375,-1.2542591094970703,-6.016488075256348,2.6330583095550537
1712835555810407700,2.32240771484375,-1.7050776481628418,-7.4031524658203125,2.2616522312164307
1712835555830407700,2.34240771484375,-1.553583025932312,-8.40191650390625,2.0203604698181152
1712835555850407700,2.36240771484375,-0.8107708692550659,-7.747069358825684,2.1907918453216553
1712835555870407700,2.38240771484375,-0.1137736514210701,-5.750761985778809,1.9452240467071533
1712835555890407400,2.402407470703125,0.2399173229932785,-3.102660894393921,1.3423000574111938
1712835555910407400,2.422407470703125,0.32910364866256714,-0.510759711265564,0.9989937543869019
1712835555930407400,2.442407470703125,0.7860308289527893,1.4690545797348022,0.46937358379364014
1712835555950407400,2.462407470703125,1.1494957208633423,2.3847415447235107,0.08147415518760681
1712835555970407400,2.482407470703125,1.2539535760879517,2.192318916320801,-0.0443640872836113
1712835555990407400,2.502407470703125,1.419498085975647,1.057942271232605,-0.3412446081638336
1712835556010407400,2.522407470703125,1.4439327716827393,-0.11736248433589935,-0.8855255246162415
1712835556030407400,2.542407470703125,1.2515101432800293,-0.6304892897605896,-1.1524736881256104
1712835556050407400,2.562407470703125,1.0651962757110596,-0.5632941126823425,-1.16530179977417
1712835556070407400,2.582407470703125,0.9772316813468933,-0.6598108410835266,-1.1830168962478638
1712835556090407400,2.602407470703125,0.9576839804649353,-0.8192466497421265,-1.2398273944854736
1712835556110407400,2.622407470703125,0.95462965965271,-0.9255372285842896,-1.222723126411438
1712835556130407400,2.642407470703125,0.9393580555915833,-0.7025713920593262,-1.1775190830230713
1712835556150407700,2.66240771484375,0.8458956480026245,-0.06299547851085663,-1.0431287288665771
1712835556170407700,2.68240771484375,0.6155994534492493,0.5894085764884949,-0.8036695718765259
1712835556190407700,2.70240771484375,0.35842517018318176,0.7738898992538452,-0.5727625489234924
1712835556210407700,2.72240771484375,0.10430523753166199,0.6059019565582275,-0.40049853920936584
1712835556230407700,2.74240771484375,-0.18768835067749023,0.15630514919757843,-0.2703842222690582
1712835556250407400,2.762407470703125,-0.39354994893074036,0.024358252063393593,-0.12805262207984924
1712835556270407400,2.782407470703125,-0.5462662577629089,0.08483391255140305,0.06436992436647415
1712835556290407700,2.80240771484375,-0.6159048676490784,0.22960896790027618,0.254349023103714
1712835556310407700,2.82240771484375,-0.7026477456092834,0.38354700803756714,0.415617436170578
1712835556330407700,2.84240771484375,-0.8223773241043091,0.4812854528427124,0.5335144400596619
1712835556350407700,2.86240771484375,-0.9329439401626587,0.48922669887542725,0.668515682220459
1712835556370407700,2.88240771484375,-1.0239628553390503,0.41775545477867126,0.8029059767723083
1712835556390407400,2.902407470703125,-1.0661125183105469,0.12637275457382202,0.8719337582588196
1712835556410407400,2.922407470703125,-1.067945122718811,-0.11369729042053223,0.9263007640838623
1712835556430407400,2.942407470703125,-1.0764973163604736,-0.20777054131031036,0.848110020160675
1712835556450407400,2.962407470703125,-1.0209085941314697,-0.05871942266821861,0.76136714220047
1712835556470407400,2.982407470703125,-0.8743008971214294,0.7916049957275391,0.7992408275604248
1712835556490407400,3.002407470703125,-0.6287330389022827,1.6315447092056274,0.5310709476470947
1712835556510407400,3.022407470703125,-0.055741455405950546,2.2472968101501465,-0.19769126176834106
1712835556530407400,3.042407470703125,0.7011205554008484,3.5808157920837402,-0.4322635233402252
1712835556550407400,3.062407470703125,1.4072808027267456,4.953429698944092,-0.3278055489063263
1712835556570407400,3.082407470703125,1.7548631429672241,5.230762958526611,-0.29481884837150574
1712835556590407400,3.102407470703125,1.7469218969345093,4.962593078613281,-0.4322635233402252
1712835556610407400,3.122407470703125,1.6607898473739624,4.2374958992004395,-0.4847979247570038
1712835556630407400,3.142407470703125,1.6687310934066772,3.312035083770752,-0.5800929069519043
1712835556650407700,3.16240771484375,1.5215126276016235,3.3554065227508545,-1.193401575088501
1712835556670407700,3.18240771484375,0.14340060949325562,4.3578362464904785,-1.327181100845337
1712835556690407700,3.20240771484375,-0.13454307615756989,3.643734931945801,-0.6387359499931335
1712835556710407700,3.22240771484375,0.016951510682702065,0.23144157230854034,-0.8219955563545227
1712835556730407700,3.24240771484375,-0.26832255721092224,-0.8039750456809998,-0.6564510464668274
1712835556750407400,3.262407470703125,0.3572034537792206,-0.7135669589042664,-0.24350616335868835
1712835556770407400,3.282407470703125,0.4335615932941437,0.013362676836550236,0.5506186485290527
1712835556790407700,3.30240771484375,0.3150537610054016,0.6443864703178406,1.2995394468307495
1712835556810407700,3.32240771484375,0.4127921760082245,0.3249039649963379,1.7576884031295776
1712835556830407700,3.34240771484375,0.4683809280395508,-0.8650615215301514,1.8987982273101807
1712835556850407700,3.36240771484375,0.3199406862258911,-2.3122012615203857,1.98737370967865
1712835556870407700,3.38240771484375,-0.21762074530124664,-3.836920976638794,1.9769890308380127
1712835556890407400,3.402407470703125,-0.926224410533905,-5.365916728973389,1.6703346967697144
1712835556910407400,3.422407470703125,-1.744783878326416,-5.997551441192627,1.0869582891464233
1712835556930407400,3.442407470703125,-2.25791072845459,-6.34696626663208,0.6556875109672546
1712835556950407400,3.462407470703125,-1.4552336931228638,-7.081837177276611,0.02955060638487339
1712835556970407400,3.482407470703125,-0.40515637397766113,-6.36895751953125,0.21097758412361145
1712835556990407400,3.502407470703125,0.2503020465373993,-3.434971570968628,1.1437687873840332
1712835557010407400,3.522407470703125,0.7035640478134155,-1.5602262020111084,0.6361398100852966
1712835557030407400,3.542407470703125,0.7231117486953735,-0.16623170673847198,-0.4279874563217163
1712835557050407400,3.562407470703125,0.4164573848247528,1.369483470916748,-0.8201629519462585
1712835557070407400,3.582407470703125,0.49525898694992065,2.273564100265503,-0.8366563320159912
1712835557090407400,3.602407470703125,0.8287914395332336,2.05365252494812,-0.8763625621795654
1712835557110407400,3.622407470703125,0.8477282524108887,0.7470118403434753,-1.2709815502166748
1712835557130407400,3.642407470703125,0.6821837425231934,-0.7245625257492065,-1.6258941888809204
1712835557150407700,3.66240771484375,0.5325217843055725,-1.774029016494751,-1.633224606513977
1712835557170407700,3.68240771484375,0.5337435007095337,-2.3421337604522705,-1.4353042840957642
1712835557190407700,3.70240771484375,0.5203045010566711,-1.973781943321228,-1.2734249830245972
1712835557210407700,3.72240771484375,0.5294674634933472,-1.1631637811660767,-1.119486927986145
1712835557230407700,3.74240771484375,0.40973785519599915,-0.1955532431602478,-0.8824712038040161
1712835557250407400,3.762407470703125,0.06948592513799667,0.4666246771812439,-0.6161339282989502
1712835557270407400,3.782407470703125,-0.299476683139801,0.6810383796691895,-0.3974441885948181
1712835557290407700,3.80240771484375,-0.5774203538894653,0.6077345609664917,-0.190360888838768
1712835557310407700,3.82240771484375,-0.8095491528511047,0.2851977050304413,-0.0034361169673502445
1712835557330407700,3.84240771484375,-0.9683741331100464,-0.01290452852845192,0.20609065890312195
1712835557350407700,3.86240771484375,-1.0282388925552368,-0.32505667209625244,0.39179369807243347
1712835557370407700,3.88240771484375,-1.0569496154785156,-0.4826599061489105,0.5408447980880737
1712835557390407400,3.902407470703125,-1.1174252033233643,-0.3464369475841522,0.7033349871635437
1712835557410407400,3.922407470703125,-1.1241447925567627,-0.00862847175449133,0.7540367841720581
1712835557430407400,3.942407470703125,-0.8797986507415771,0.8416959643363953,0.8939249515533447
1712835557450407400,3.962407470703125,-0.6464481353759766,2.036548376083374,0.9464593529701233
1712835557470407400,3.982407470703125,-0.28848111629486084,2.250962018966675,0.24762949347496033
1712835557490407400,4.002407470703125,0.5502368807792664,2.8581621646881104,-0.3485749661922455
1712835557510407400,4.022407470703125,1.6003142595291138,4.503222465515137,-0.6619488596916199
1712835557530407400,4.042407470703125,1.9998201131820679,5.071937561035156,-0.6888269186019897
1712835557550407400,4.062407470703125,1.9271271228790283,4.602793216705322,-0.7664068341255188
1712835557570407400,4.082407470703125,1.896583914756775,3.86181378364563,-0.9759336113929749
1712835557590407400,4.102407470703125,1.7218763828277588,3.887470006942749,-1.2550990581512451
1712835557610407400,4.122407470703125,0.9711230397224426,4.033466815948486,-2.011960983276367
1712835557630407400,4.142407470703125,1.0010554790496826,3.602195978164673,-1.462793231010437
1712835557650407700,4.16240771484375,0.6589708924293518,1.6877442598342896,-0.9032406210899353
1712835557670407700,4.18240771484375,0.2698497176170349,-0.10697777569293976,-0.96799236536026
1712835557690407700,4.20240771484375,0.46899178624153137,-0.4533383846282959,-0.8226063847541809
1712835557710407700,4.22240771484375,0.6962336897850037,0.38721221685409546,-0.2520582675933838
1712835557730407700,4.24240771484375,0.82207190990448,1.381700873374939,0.23663392663002014
1712835557750407400,4.262407470703125,0.8086328506469727,1.9308686256408691,0.7216609120368958
1712835557770407400,4.282407470703125,0.7982481718063354,1.6865226030349731,0.9177486896514893
1712835557790407700,4.30240771484375,1.0291552543640137,0.9553169012069702,0.9794460535049438
1712835557810407700,4.32240771484375,1.1391109228134155,0.10010553896427155,1.2824351787567139
1712835557830407700,4.34240771484375,1.0395399332046509,-0.681191086769104,1.7283668518066406
1712835557850407700,4.36240771484375,0.822682797908783,-1.1222357749938965,1.9647717475891113
1712835557870407700,4.38240771484375,0.5636758804321289,-1.5504523515701294,2.0050888061523438
1712835557890407400,4.402407470703125,0.15745051205158234,-2.1747565269470215,2.1358139514923096
1712835557910407400,4.422407470703125,-0.5267185568809509,-2.993316173553467,2.0411298274993896
1712835557930407400,4.442407470703125,-1.4650075435638428,-4.234594345092773,1.809001088142395
1712835557950407400,4.462407470703125,-2.4662156105041504,-5.745874881744385,1.2677744626998901
1712835557970407400,4.482407470703125,-3.310431480407715,-6.4905195236206055,0.972115695476532
1712835557990407400,4.502407470703125,-2.9213104248046875,-7.1435346603393555,0.5274057984352112
1712835558010407400,4.522407470703125,-1.107040524482727,-8.201553344726562,-0.2569451928138733
1712835558030407400,4.542407470703125,-0.42959097027778625,-5.733657360076904,0.629420280456543
1712835558050407400,4.562407470703125,0.4225660264492035,-2.26027774810791,0.8084037899971008
1712835558070407400,4.582407470703125,0.7451028823852539,-0.4844925105571747,-0.10850493609905243
1712835558090407400,4.602407470703125,0.5025894045829773,1.5496888160705566,-0.6967681646347046
1712835558110407400,4.622407470703125,0.6498079299926758,3.2802700996398926,-0.6362925171852112
1712835558130407400,4.642407470703125,0.8642216324806213,3.094567060470581,-0.577038586139679
1712835558150407700,4.66240771484375,0.7945829629898071,1.0994811058044434,-1.0577895641326904
1712835558170407700,4.68240771484375,0.7310529947280884,-0.9750173091888428,-1.481119155883789
1712835558190407700,4.70240771484375,0.6669121384620667,-2.1081724166870117,-1.5024994611740112
1712835558210407700,4.72240771484375,0.7677049040794373,-2.3641247749328613,-1.33878755569458
1712835558230407700,4.74240771484375,0.851393461227417,-1.9212476015090942,-1.2172253131866455
1712835558250407400,4.762407470703125,0.7884743213653564,-0.9518043994903564,-1.1695778369903564
1712835558270407400,4.782407470703125,0.6553056836128235,0.020082194358110428,-0.977155327796936
1712835558290407700,4.80240771484375,0.42439863085746765,0.49900054931640625,-0.785954475402832
1712835558310407700,4.82240771484375,0.2099849283695221,0.5930737853050232,-0.653396725654602
1712835558330407700,4.84240771484375,0.034666601568460464,0.3603341281414032,-0.501902163028717
1712835558350407700,4.86240771484375,-0.1443169116973877,-0.00557414535433054,-0.3363576829433441
1712835558370407700,4.88240771484375,-0.28420504927635193,-0.2560288906097412,-0.14149166643619537
1712835558390407400,4.902407470703125,-0.43875396251678467,-0.33910655975341797,0.057039543986320496
1712835558410407400,4.922407470703125,-0.622013509273529,-0.22304217517375946,0.20914499461650848
1712835558430407400,4.942407470703125,-0.8510879874229431,0.06650795042514801,0.2751184403896332
1712835558450407400,4.962407470703125,-1.070388674736023,0.34322991967201233,0.3655264973640442
1712835558470407400,4.982407470703125,-1.2597568035125732,0.630336582660675,0.4876995384693146
1712835558490407400,5.002407470703125,-1.352608323097229,0.7207446098327637,0.5267949104309082
1712835558510407400,5.022407470703125,-1.1675162315368652,0.6492733955383301,0.47853657603263855
1712835558530407400,5.042407470703125,-0.8254316449165344,1.039616346359253,0.5316818356513977
1712835558550407400,5.062407470703125,-0.5609270334243774,1.2069933414459229,0.21036672592163086
1712835558570407400,5.082407470703125,-0.044135015457868576,1.3193925619125366,-0.7987826466560364
1712835558590407400,5.102407470703125,0.6430884003639221,2.9235246181488037,-1.0254136323928833
1712835558610407400,5.122407470703125,1.2185235023498535,4.307134628295898,-1.1133782863616943
1712835558630407400,5.142407470703125,1.3706289529800415,4.3101887702941895,-1.3668873310089111
1712835558650407700,5.16240771484375,1.3498594760894775,3.9229001998901367,-1.4346933364868164
1712835558670407700,5.18240771484375,1.3028228282928467,3.4775795936584473,-1.5061646699905396
1712835558690407700,5.20240771484375,1.1757628917694092,3.2179617881774902,-1.4853951930999756
1712835558710407700,5.22240771484375,0.840397834777832,3.4775795936584473,-1.8006017208099365
1712835558730407700,5.24240771484375,0.08536841720342636,3.8770854473114014,-2.566626787185669
1712835558750407400,5.262407470703125,-0.30925053358078003,3.7995054721832275,-2.3045654296875
1712835558770407400,5.282407470703125,-0.5010622143745422,2.6907849311828613,-1.3149638175964355
1712835558790407700,5.30240771484375,-0.8810204267501831,0.9473756551742554,-1.0272462368011475
1712835558810407700,5.32240771484375,-1.0648908615112305,-0.5040401816368103,-1.0596221685409546
1712835558830407700,5.34240771484375,-0.8003861904144287,-0.8705593347549438,-0.6277403831481934
1712835558850407700,5.36240771484375,-0.6495024561882019,-0.510148823261261,-0.24961480498313904
1712835558870407700,5.38240771484375,-0.48517972230911255,-0.01290452852845192,0.18715384602546692
1712835558890407400,5.402407470703125,-0.1950187236070633,0.0518471859395504,0.6990588903427124
1712835558910407400,5.422407470703125,0.031001411378383636,-0.11614075303077698,1.2109639644622803
1712835558930407400,5.442407470703125,0.28878653049468994,-0.5339725613594055,1.6324609518051147
1712835558950407400,5.462407470703125,0.5447390675544739,-1.127733588218689,2.017306089401245
1712835558970407400,5.482407470703125,0.6998988389968872,-1.9151389598846436,2.358168840408325
1712835558990407400,5.502407470703125,0.5258022546768188,-2.681164026260376,2.508441686630249
1712835559010407400,5.522407470703125,0.1238529309630394,-3.574248790740967,2.6403887271881104
1712835559030407400,5.542407470703125,-0.6079636216163635,-4.593172073364258,2.6684885025024414
1712835559050407400,5.562407470703125,-1.6714800596237183,-5.993275165557861,2.46384859085083
1712835559070407400,5.582407470703125,-2.0190622806549072,-7.594964027404785,1.9042960405349731
1712835559090407400,5.602407470703125,-1.6537649631500244,-8.757440567016602,1.6123024225234985
1712835559110407400,5.622407470703125,-0.6885978579521179,-7.932772636413574,1.9268980026245117
1712835559130407400,5.642407470703125,0.1739438772201538,-4.662810802459717,1.1871402263641357
1712835559150407700,5.66240771484375,0.4512766897678375,-0.8302422165870667,0.6813437938690186
1712835559170407700,5.68240771484375,0.5288565754890442,2.058539628982544,0.21281017363071442
1712835559190407700,5.70240771484375,0.7047857642173767,3.6877171993255615,-0.44570255279541016
1712835559210407700,5.72240771484375,0.9295842051506042,4.040797233581543,-0.7059311270713806
1712835559230407700,5.74240771484375,1.1128437519073486,3.2045226097106934,-0.7627416253089905
1712835559250407400,5.762407470703125,1.098793864250183,1.5796211957931519,-1.2874748706817627
1712835559270407400,5.782407470703125,0.9082038998603821,0.13003793358802795,-1.8476382493972778
1712835559290407700,5.80240771484375,0.6785185933113098,-0.46127963066101074,-2.0632736682891846
1712835559310407700,5.82240771484375,0.6137668490409851,-0.5968917012214661,-1.9154443740844727
1712835559330407700,5.84240771484375,0.5636758804321289,-0.833296537399292,-1.6405550241470337
1712835559350407700,5.86240771484375,0.38347065448760986,-0.9188176989555359,-1.39559805393219
1712835559370407700,5.88240771484375,0.23075434565544128,-0.901102602481842,-1.2514338493347168
1712835559390407400,5.902407470703125,0.21181751787662506,-0.6982953548431396,-1.0309114456176758
1712835559410407400,5.922407470703125,0.08720101416110992,-0.0012980886967852712,-0.6876052021980286
1712835559430407400,5.942407470703125,-0.09483683109283447,0.6590472459793091,-0.3223077654838562
1712835559450407400,5.962407470703125,-0.20723603665828705,0.8911760449409485,-0.006490443367511034
1712835559470407400,5.982407470703125,-0.3312416672706604,0.7415140271186829,0.23541219532489777
1712835559490407400,6.002407470703125,-0.5187773108482361,0.4806745946407318,0.4150065779685974
1712835559510407400,6.022407470703125,-0.7289149761199951,0.1978439837694168,0.6214790344238281
1712835559530407400,6.042407470703125,-0.8620835542678833,0.0921642929315567,0.7961865067481995
1712835559550407400,6.062407470703125,-1.0520626306533813,0.0316886343061924,0.9757808446884155
1712835559570407400,6.082407470703125,-1.0587822198867798,0.0823904499411583,1.0081567764282227
1712835559590407400,6.102407470703125,-0.8229882121086121,0.2528218626976013,0.9409615397453308
1712835559610407400,6.122407470703125,-0.565203070640564,0.43424883484840393,0.7931321859359741
1712835559630407400,6.142407470703125,-0.20845776796340942,0.5075526833534241,0.21952970325946808
1712835559650407700,6.16240771484375,0.4219551682472229,1.6578118801116943,-0.28015807271003723
1712835559670407700,6.18240771484375,1.1812607049942017,3.5374443531036377,-0.4951826333999634
1712835559690407700,6.20240771484375,1.6351335048675537,4.690757751464844,-0.6228534579277039
1712835559710407700,6.22240771484375,1.7176003456115723,4.6119561195373535,-0.8690321445465088
1712835559730407700,6.24240771484375,1.7805194854736328,4.37921667098999,-1.0461831092834473
1712835559750407400,6.262407470703125,1.762804388999939,3.6547303199768066,-1.271592378616333
1712835559770407400,6.282407470703125,1.4824172258377075,3.144657850265503,-1.5422056913375854
1712835559790407700,6.30240771484375,1.003498911857605,3.4757468700408936,-1.6283376216888428
1712835559810407700,6.32240771484375,0.18249599635601044,3.7023777961730957,-2.120084285736084
1712835559830407700,6.34240771484375,-0.1235474944114685,3.5838699340820312,-2.2166008949279785
1712835559850407700,6.36240771484375,-0.4008803069591522,2.778749704360962,-1.2831988334655762
1712835559870407700,6.38240771484375,-0.7954992651939392,1.067716121673584,-0.6759987473487854
1712835559890407400,6.402407470703125,-0.8064948320388794,-0.5419138073921204,-0.815276026725769
1712835559910407400,6.422407470703125,-0.4607451260089874,-1.2383002042770386,-0.8702539205551147
1712835559930407400,6.442407470703125,-0.27320948243141174,-0.9237046241760254,-0.3326924741268158
1712835559950407400,6.462407470703125,-0.24938572943210602,0.0029779679607599974,0.4669301211833954
1712835559970407400,6.482407470703125,-0.10094548016786575,0.5735260844230652,1.0521390438079834
1712835559990407400,6.502407470703125,0.3058907687664032,0.4318053722381592,1.4608079195022583
1712835560010407400,6.522407470703125,0.6430884003639221,-0.2114357352256775,1.8242727518081665
1712835560030407400,6.542407470703125,0.8294022679328918,-1.1393400430679321,2.2799782752990723
1712835560050407400,6.562407470703125,0.812298059463501,-2.3085360527038574,2.5848000049591064
1712835560070407400,6.582407470703125,0.42928555607795715,-3.608457326889038,2.6636016368865967
1712835560090407400,6.602407470703125,-0.22250767052173615,-4.659145355224609,2.5041656494140625
1712835560110407400,6.622407470703125,-1.1162035465240479,-5.5833845138549805,2.212172031402588
1712835560130407400,6.642407470703125,-1.951256275177002,-6.732422351837158,1.8444312810897827
1712835560150407700,6.66240771484375,-2.1039726734161377,-7.906505107879639,1.084514856338501
1712835560170407700,6.68240771484375,-1.0325149297714233,-8.209494590759277,1.4992923736572266
1712835560190407700,6.70240771484375,0.17638733983039856,-5.72205114364624,1.599474310874939
1712835560210407700,6.72240771484375,0.5141957998275757,-2.6048057079315186,1.028926134109497
1712835560230407700,6.74240771484375,0.660803496837616,0.8392524719238281,0.16149750351905823
1712835560250407400,6.762407470703125,0.8092437386512756,3.194748878479004,-0.41515928506851196
1712835560270407400,6.782407470703125,0.8434522151947021,4.216726303100586,-0.748080849647522
1712835560290407700,6.80240771484375,0.915534257888794,3.730477809906006,-1.0022008419036865
1712835560310407700,6.82240771484375,1.0004445314407349,1.665142297744751,-1.4884495735168457
1712835560330407700,6.84240771484375,0.831234872341156,-0.24869851768016815,-1.9856938123703003
1712835560350407700,6.86240771484375,0.6485861539840698,-1.3757449388504028,-2.22881817817688
1712835560370407700,6.88240771484375,0.5697845816612244,-1.6927839517593384,-2.0205130577087402
1712835560390407400,6.902407470703125,0.5948300361633301,-1.7587573528289795,-1.6857589483261108
1712835560410407400,6.922407470703125,0.6278167366981506,-1.6457473039627075,-1.5764141082763672
1712835560430407400,6.942407470703125,0.6620252132415771,-1.1552225351333618,-1.575803279876709
1712835560450407400,6.962407470703125,0.5978843569755554,-0.17722727358341217,-1.2123384475708008
1712835560470407400,6.982407470703125,0.33337971568107605,0.6688210964202881,-0.8024478554725647
1712835560490407400,7.002407470703125,0.0988074541091919,1.0500010251998901,-0.4542546570301056
1712835560510407400,7.022407470703125,-0.044745877385139465,0.9577603340148926,-0.17386752367019653
1712835560530407400,7.042407470703125,-0.17669276893138885,0.6541603207588196,0.07658722996711731
1712835560550407400,7.062407470703125,-0.34834590554237366,0.3255148231983185,0.3453679382801056
1712835560570407400,7.082407470703125,-0.5499314665794373,0.05429064854979515,0.648357093334198
1712835560590407400,7.102407470703125,-0.727082371711731,-0.1698969006538391,0.8768206834793091
1712835560610407400,7.122407470703125,-0.8168795704841614,-0.277409166097641,1.0325913429260254
1712835560630407400,7.142407470703125,-0.9158397316932678,-0.20349448919296265,1.1480448246002197
1712835560650407700,7.16240771484375,-1.0948232412338257,-0.04528038576245308,1.249448537826538
1712835560670407700,7.18240771484375,-1.239598274230957,0.10865765810012817,1.2824351787567139
1712835560690407700,7.20240771484375,-1.222494125366211,0.21189388632774353,1.2286790609359741
1712835560710407700,7.22240771484375,-1.0465649366378784,0.6138432025909424,1.1700360774993896
1712835560730407700,7.24240771484375,-0.916450560092926,1.1275808811187744,1.0490846633911133
1712835560750407400,7.262407470703125,-0.3251330256462097,1.0237337350845337,0.19631682336330414
1712835560770407400,7.282407470703125,0.5068654417991638,2.1660518646240234,-0.36567920446395874
1712835560790407700,7.30240771484375,1.1959214210510254,4.331569194793701,-0.41515928506851196
1712835560810407700,7.32240771484375,1.3235923051834106,5.07071590423584,-0.6454554796218872
1712835560830407700,7.34240771484375,1.4891366958618164,4.330347537994385,-1.1915689706802368
1712835560850407700,7.36240771484375,1.609477162361145,3.6376261711120605,-1.4267520904541016
1712835560870407700,7.38240771484375,1.5276212692260742,2.960787534713745,-1.726686954498291
1712835560890407400,7.402407470703125,1.345583438873291,3.67549991607666,-2.0553324222564697
1712835560910407400,7.422407470703125,0.34437528252601624,4.289419174194336,-2.8830549716949463
1712835560930407400,7.442407470703125,-0.22861631214618683,4.377995014190674,-3.1017446517944336
1712835560950407400,7.462407470703125,-0.42348232865333557,2.838003635406494,-1.9893590211868286
1712835560970407400,7.482407470703125,-0.6678284406661987,0.18745927512645721,-1.6772068738937378
1712835560990407400,7.502407470703125,-0.6794348955154419,-1.3476450443267822,-1.9447659254074097
1712835561010407400,7.522407470703125,-0.2298380434513092,-1.168050765991211,-1.8445839881896973
1712835561030407400,7.542407470703125,0.012064588256180286,0.08910996466875076,-1.2593750953674316
1712835561050407400,7.562407470703125,-0.20784689486026764,1.743333101272583,-0.4243222773075104
1712835561070407400,7.582407470703125,-0.3660610020160675,2.433610677719116,0.18654297292232513
1712835561090407400,7.602407470703125,-0.24205535650253296,2.062204599380493,0.48464521765708923
1712835561110407400,7.622407470703125,-0.05757404863834381,1.0628291368484497,0.8505535125732422
1712835561130407400,7.642407470703125,0.11285735666751862,-0.11919508129358292,1.3850605487823486
1712835561150407700,7.66240771484375,0.27718010544776917,-1.225472092628479,1.7778469324111938
1712835561170407700,7.68240771484375,0.41951170563697815,-2.030592441558838,2.0234148502349854
1712835561190407700,7.70240771484375,0.5111414790153503,-2.402609348297119,2.36611008644104
1712835561210407700,7.72240771484375,0.4824308156967163,-2.6402359008789062,2.706973075866699
1712835561230407700,7.74240771484375,0.4280638098716736,-3.0348548889160156,2.7802767753601074
1712835561250407400,7.762407470703125,-0.019089538604021072,-4.034841537475586,2.728353261947632
1712835561270407400,7.782407470703125,-0.7411322593688965,-4.522311687469482,2.8089873790740967
1712835561290407700,7.80240771484375,-1.716684103012085,-5.425170421600342,2.773557186126709
1712835561310407700,7.82240771484375,-2.426509380340576,-7.361002445220947,2.1052706241607666
1712835561330407700,7.84240771484375,-2.096031427383423,-8.786150932312012,1.8334356546401978
1712835561350407700,7.86240771484375,-0.6904304623603821,-7.930328845977783,2.1804070472717285
1712835561370407700,7.88240771484375,0.25763240456581116,-4.927926063537598,1.845042109489441
1712835561390407400,7.902407470703125,0.18005253374576569,-1.2890020608901978,1.0655781030654907
1712835561410407400,7.922407470703125,0.3828597962856293,1.50448477268219,0.15661057829856873
1712835561430407400,7.942407470703125,0.6210972666740417,3.323030471801758,-0.3766747713088989
1712835561450407400,7.962407470703125,0.831234872341156,4.286365032196045,-0.3870594799518585
1712835561470407400,7.982407470703125,1.013272762298584,3.652287006378174,-0.41149410605430603
1712835561490407400,8.002407470703124,1.0615310668945312,1.2595278024673462,-0.9637162685394287
1712835561510407400,8.022407470703126,0.9576839804649353,-0.7380015850067139,-1.374828577041626
1712835561530407400,8.042407470703125,0.8996517658233643,-1.6897295713424683,-1.442023754119873
1712835561550407400,8.062407470703125,0.9778425693511963,-2.084348678588867,-1.336954951286316
1712835561570407400,8.082407470703124,1.002277135848999,-2.318920850753784,-1.145754098892212
1712835561590407400,8.102407470703126,0.8654433488845825,-2.2834906578063965,-0.986929178237915
1712835561610407400,8.122407470703125,0.6815729141235352,-1.811902642250061,-0.7932848930358887
1712835561630407400,8.142407470703125,0.437226802110672,-0.9408088326454163,-0.6088035702705383
1712835561650407700,8.16240771484375,0.21303924918174744,0.002367102773860097,-0.47013717889785767
1712835561670407700,8.18240771484375,0.08659014850854874,0.5942955017089844,-0.36079227924346924
1712835561690407700,8.20240771484375,-0.04535674303770065,0.7879397869110107,-0.23251058161258698
1712835561710407700,8.22240771484375,-0.2200642079114914,0.7354053854942322,-0.10361801832914352
1712835561730407700,8.24240771484375,-0.38011088967323303,0.5099961161613464,0.03504839166998863
1712835561750407400,8.262407470703126,-0.5303837656974792,0.33773213624954224,0.16638441383838654
1712835561770407400,8.282407470703125,-0.6757696866989136,0.3749949038028717,0.23541219532489777
1712835561790407700,8.30240771484375,-0.8425359129905701,0.5900194644927979,0.2586250603199005
1712835561810407700,8.32240771484375,-1.0319041013717651,0.8801804780960083,0.2989421784877777
1712835561830407700,8.34240771484375,-1.185231328010559,1.037172794342041,0.3801872432231903
1712835561850407700,8.36240771484375,-1.3293955326080322,0.9638689756393433,0.5335144400596619
1712835561870407700,8.38240771484375,-1.3190107345581055,0.5973498225212097,0.44921502470970154
1712835561890407400,8.402407470703125,-1.146135926246643,0.49961140751838684,0.4504367709159851
1712835561910407400,8.422407470703124,-0.898124635219574,0.5490915179252625,0.31115949153900146
1712835561930407400,8.442407470703126,-0.5902485251426697,0.45379650592803955,-0.1811978965997696
1712835561950407400,8.462407470703125,-0.3196352422237396,1.3334424495697021,-0.6833291053771973
1712835561970407400,8.482407470703125,0.31871894001960754,3.1354949474334717,-1.0138071775436401
1712835561990407400,8.502407470703124,0.8959866166114807,4.475733280181885,-1.1762974262237549
1712835562010407400,8.522407470703126,1.0450377464294434,4.771391868591309,-1.2758684158325195
1712835562030407400,8.542407470703125,1.1525499820709229,4.577136993408203,-1.407204508781433
1712835562050407400,8.562407470703125,1.1525499820709229,3.900909185409546,-1.6375006437301636
1712835562070407400,8.582407470703124,0.9442449808120728,3.6791651248931885,-2.2330942153930664
1712835562090407400,8.602407470703126,0.4335615932941437,3.641291379928589,-2.8592312335968018
1712835562110407400,8.622407470703125,-0.02825251780450344,3.9809324741363525,-2.7162885665893555
1712835562130407400,8.642407470703125,-0.23289237916469574,2.949181079864502,-1.6576591730117798
1712835562150407700,8.66240771484375,-0.5352706909179688,1.115363597869873,-0.9545533061027527
1712835562170407700,8.68240771484375,-0.8150469660758972,-0.46189048886299133,-1.0309114456176758
1712835562190407700,8.70240771484375,-0.9427177906036377,-1.0012844800949097,-0.9850965738296509
1712835562210407700,8.72240771484375,-0.8547531962394714,-0.5993351340293884,-0.5245041847229004
1712835562230407700,8.74240771484375,-0.6782131195068359,-0.0012980886967852712,0.021609358489513397
1712835562250407400,8.762407470703126,-0.3355177342891693,0.2735912799835205,0.47426050901412964
1712835562270407400,8.782407470703125,0.05360342562198639,-0.02695442922413349,0.8181776404380798
1712835562290407700,8.80240771484375,0.3510948121547699,-0.5077053904533386,1.2219595909118652
1712835562310407700,8.82240771484375,0.6198754906654358,-0.8583420515060425,1.705764889717102
1712835562330407700,8.84240771484375,0.8287914395332336,-1.2205851078033447,2.3502275943756104
1712835562350407700,8.86240771484375,0.8294022679328918,-1.5180765390396118,2.700253486633301
1712835562370407700,8.88240771484375,0.5789475440979004,-2.094733238220215,2.8871781826019287
1712835562390407400,8.902407470703125,0.04138612002134323,-2.7801241874694824,2.996523141860962
1712835562410407400,8.922407470703124,-0.6336199641227722,-4.146018981933594,2.8664088249206543
1712835562430407400,8.942407470703126,-1.3416128158569336,-5.794133186340332,2.2304980754852295
1712835562450407400,8.962407470703125,-1.4912748336791992,-7.244327068328857,1.5927547216415405
1712835562470407400,8.982407470703125,-0.764955997467041,-7.475234508514404,1.6355153322219849
1712835562490407400,9.002407470703124,0.16111570596694946,-5.951125621795654,1.7735708951950073
1712835562510407400,9.022407470703126,0.3205515444278717,-2.846097469329834,1.2946525812149048
1712835562530407400,9.042407470703125,0.34865134954452515,-0.500985860824585,0.7858017683029175
1712835562550407400,9.062407470703125,0.6009386777877808,1.1880565881729126,0.2586250603199005
1712835562570407400,9.082407470703124,0.7890852093696594,1.9925661087036133,-0.05169447138905525
1712835562590407400,9.102407470703126,0.8978192210197449,1.960801124572754,-0.12316570430994034
1712835562610407400,9.122407470703125,0.9075930118560791,1.3731486797332764,-0.21235203742980957
1712835562630407400,9.142407470703125,0.9130908250808716,0.491670161485672,-0.5147303342819214
1712835562650407700,9.16240771484375,0.8159632682800293,-0.144851416349411,-0.8812494874000549
1712835562670407700,9.18240771484375,0.631481945514679,-0.3769802153110504,-0.9954812526702881
1712835562690407700,9.20240771484375,0.5258022546768188,-0.5046510696411133,-0.8189412355422974
1712835562710407700,9.22240771484375,0.5520694851875305,-0.6280458569526672,-0.738306999206543
1712835562730407700,9.24240771484375,0.5233588218688965,-0.6054438352584839,-0.8012261390686035
1712835562750407400,9.262407470703126,0.4225660264492035,-0.3922518491744995,-0.7511351704597473
1712835562770407400,9.282407470703125,0.3162754774093628,-0.07643451541662216,-0.5562691688537598
1712835562790407700,9.30240771484375,0.1085812970995903,0.2998584806919098,-0.3583488166332245
1712835562810407700,9.32240771484375,-0.038026362657547,0.49411362409591675,-0.2160172164440155
1712835562830407700,9.34240771484375,-0.1846340149641037,0.47884199023246765,-0.05841398984193802
1712835562850407700,9.36240771484375,-0.3471241891384125,0.3487277030944824,0.0771980956196785
1712835562870407700,9.38240771484375,-0.5279402732849121,0.1886810064315796,0.2390773892402649
1712835562890407400,9.402407470703125,-0.7374670505523682,0.07994698733091354,0.406454473733902
1712835562910407400,9.422407470703124,-0.917672336101532,0.1477530300617218,0.47914743423461914
1712835562930407400,9.442407470703126,-1.0056369304656982,0.26137396693229675,0.43211081624031067
1712835562950407400,9.462407470703125,-1.0093021392822266,0.3969860374927521,0.38263070583343506
1712835562970407400,9.482407470703125,-0.9445503950119019,0.6840927004814148,0.3343723714351654
1712835562990407400,9.502407470703124,-0.7619016766548157,1.210047721862793,0.36186128854751587
1712835563010407400,9.522407470703126,-0.4723515510559082,1.6706401109695435,0.14928019046783447
1712835563030407400,9.542407470703125,-0.07040221989154816,1.654146671295166,-0.3687335252761841
1712835563050407400,9.562407470703125,0.6003278493881226,2.374356746673584,-0.8042804598808289
1712835563070407400,9.582407470703124,1.3034337759017944,3.5056793689727783,-0.9227883219718933
1712835563090407400,9.602407470703126,1.5917620658874512,4.170300483703613,-1.1158217191696167
1712835563110407400,9.622407470703125,1.686446189880371,4.065842628479004,-1.3522266149520874
1712835563130407400,9.642407470703125,1.6375770568847656,3.8520398139953613,-1.4065935611724854
1712835563150407700,9.66240771484375,1.6430747509002686,3.426877737045288,-1.4108695983886719
1712835563170407700,9.68240771484375,1.5490015745162964,3.491018533706665,-1.595350980758667
1712835563190407700,9.70240771484375,1.1213958263397217,4.094553470611572,-1.9496527910232544
1712835563210407700,9.72240771484375,0.2997821271419525,4.689536094665527,-2.4175755977630615
1712835563230407700,9.74240771484375,-0.11316278576850891,4.444579124450684,-2.212324857711792
1712835563250407400,9.762407470703126,-0.5572618246078491,2.8581621646881104,-0.9545533061027527
1712835563270407400,9.782407470703125,-0.8162686824798584,-0.12163854390382767,-0.9637162685394287
1712835563290407700,9.80240771484375,-0.5908594131469727,-1.5962672233581543,-1.5538121461868286
1712835563310407700,9.82240771484375,-0.1388191282749176,-1.6139823198318481,-1.1188760995864868
1712835563330407700,9.84240771484375,-0.07101308554410934,-0.45150578022003174,-0.24228443205356598
1712835563350407700,9.86240771484375,-0.07528914511203766,0.734183669090271,0.5848271250724792
1712835563370407700,9.88240771484375,0.026114489883184433,1.1495720148086548,0.9879981875419617
1712835563390407400,9.902407470703125,0.24602597951889038,0.8233699798583984,1.246394157409668
1712835563410407400,9.922407470703124,0.4665483236312866,-0.009239336475729942,1.6300175189971924
1712835563430407400,9.942407470703126,0.6192646622657776,-1.0086148977279663,2.0582339763641357
1712835563450407400,9.962407470703125,0.6632469296455383,-1.9517908096313477,2.6067910194396973
1712835563470407400,9.982407470703125,0.6204863786697388,-2.7532460689544678,2.9403235912323
1712835563490407400,10.002407470703124,0.285121351480484,-3.5516469478607178,3.0515010356903076
1712835563510407400,10.022407470703126,-0.41920626163482666,-4.411745071411133,3.108311414718628
1712835563530407400,10.042407470703125,-1.489442229270935,-5.045212268829346,3.0875420570373535
1712835563550407400,10.062407470703125,-2.5340218544006348,-6.155765533447266,2.318462610244751
1712835563570407400,10.082407470703124,-3.0269899368286133,-7.081837177276611,1.6074155569076538
1712835563590407400,10.102407470703126,-1.3391693830490112,-6.7861785888671875,1.4858533143997192
1712835563610407400,10.122407470703125,0.03955352306365967,-5.654855728149414,1.3532955646514893
1712835563630407400,10.142407470703125,-0.1333213448524475,-2.848541021347046,1.0527498722076416
1712835563650407700,10.16240771484375,0.24663683772087097,-0.5431355834007263,0.6905068159103394
1712835563670407700,10.18240771484375,0.7108944058418274,1.077489972114563,0.030772335827350616
1712835563690407700,10.20240771484375,0.8159632682800293,1.5710690021514893,-0.45669811964035034
1712835563710407700,10.22240771484375,0.9399688839912415,1.723785400390625,-0.4524220824241638
1712835563730407700,10.24240771484375,0.9882272481918335,0.6376669406890869,-0.8568148612976074
1712835563750407400,10.262407470703126,0.9283624291419983,-0.6830236911773682,-1.2624293565750122
1712835563770407400,10.282407470703125,0.9185886383056641,-1.4569900035858154,-1.3962088823318481
1712835563790407700,10.30240771484375,0.9564622640609741,-1.6243669986724854,-1.3522266149520874
1712835563810407700,10.32240771484375,0.9705121517181396,-1.4038447141647339,-1.2202796936035156
1712835563830407700,10.34240771484375,0.9332493543624878,-0.729449450969696,-1.195845127105713
1712835563850407700,10.36240771484375,0.8336783647537231,0.10377073287963867,-1.0871111154556274
1712835563870407700,10.38240771484375,0.6009386777877808,0.666377604007721,-0.8384889364242554
1712835563890407400,10.402407470703125,0.31261029839515686,0.8618544936180115,-0.6643922924995422
1712835563910407400,10.422407470703124,0.07987063378095627,0.8099309802055359,-0.5898667573928833
1712835563930407400,10.442407470703126,-0.15531249344348907,0.7818311452865601,-0.4475351572036743
1712835563950407400,10.462407470703125,-0.3459024429321289,0.5894085764884949,-0.20379991829395294
1712835563970407400,10.482407470703125,-0.5157229900360107,0.2790890634059906,0.06436992436647415
1712835563990407400,10.502407470703124,-0.6110179424285889,-0.0190131813287735,0.2244166135787964
1712835564010407400,10.522407470703126,-0.6708827614784241,-0.08559749275445938,0.273285835981369
1712835564030407400,10.542407470703125,-0.7435756921768188,0.20150917768478394,0.29649871587753296
1712835564050407400,10.562407470703125,-0.9085093140602112,0.572304368019104,0.30688342452049255
1712835564070407400,10.582407470703124,-0.9976956844329834,0.8734609484672546,0.3300963044166565
1712835564090407400,10.602407470703126,-0.945772111415863,1.056720495223999,0.3093268871307373
1712835564110407400,10.622407470703125,-0.8413141369819641,1.1703414916992188,0.43944117426872253
1712835564130407400,10.642407470703125,-0.535881519317627,0.9137780666351318,0.4101196527481079
1712835564150407700,10.66240771484375,-0.1846340149641037,0.42936190962791443,0.028328875079751015
1712835564170407700,10.68240771484375,0.14034628868103027,0.6847035884857178,-0.3675118088722229
1712835564190407700,10.70240771484375,0.6724098920822144,1.7665458917617798,-0.6747770309448242
1712835564210407700,10.72240771484375,1.267392635345459,3.6186892986297607,-0.644844651222229
1712835564230407700,10.74240771484375,1.4286611080169678,4.523380756378174,-0.7138723731040955
1712835564250407400,10.762407470703126,1.4384349584579468,4.61928653717041,-0.8525388240814209
1712835564270407400,10.782407470703125,1.4836390018463135,4.205120086669922,-1.1329259872436523
1712835564290407700,10.80240771484375,1.4115568399429321,4.227111339569092,-1.546481728553772
1712835564310407700,10.82240771484375,0.7689266204833984,4.393266677856445,-2.1634557247161865
1712835564330407700,10.84240771484375,-0.0734565481543541,4.658992767333984,-2.4933228492736816
1712835564350407700,10.86240771484375,-0.3404046595096588,3.8996872901916504,-1.801823377609253
1712835564370407700,10.88240771484375,-0.8468119502067566,1.88322114944458,-0.6802747845649719
1712835564390407400,10.902407470703125,-1.4020884037017822,-0.2859613001346588,-0.4041637182235718
1712835564410407400,10.922407470703124,-1.4240796566009521,-1.5015830993652344,-0.7114289402961731
1712835564430407400,10.942407470703126,-1.0929906368255615,-1.5620588064193726,-0.6674466133117676
1712835564450407400,10.962407470703125,-0.9934195876121521,-0.6225480437278748,-0.1860848218202591
1712835564470407400,10.982407470703125,-0.8107708692550659,0.2033417671918869,0.3606395721435547
1712835564490407400,11.002407470703124,-0.4118759036064148,0.3151301145553589,0.7919104099273682
1712835564510407400,11.022407470703126,0.07925976812839508,-0.3281109929084778,1.104062557220459
1712835564530407400,11.042407470703125,0.49525898694992065,-1.1448378562927246,1.436373233795166
1712835564550407400,11.062407470703125,0.7328855991363525,-1.91941499710083,1.8199965953826904
1712835564570407400,11.082407470703124,0.7298312783241272,-2.4429264068603516,2.114433765411377
1712835564590407400,11.102407470703126,0.4732678532600403,-2.7770698070526123,2.3031909465789795
1712835564610407400,11.122407470703125,-0.017867809161543846,-3.4087045192718506,2.4070382118225098
1712835564630407400,11.142407470703125,-0.7380779385566711,-4.432514667510986,2.4876723289489746
1712835564650407700,11.16240771484375,-1.5486961603164673,-6.061692237854004,1.9061286449432373
1712835564670407700,11.18240771484375,-1.4521794319152832,-6.797173976898193,0.9959394335746765
1712835564690407700,11.20240771484375,-0.3568980097770691,-5.849111080169678,1.1853076219558716
1712835564710407700,11.22240771484375,0.5007568001747131,-3.722078323364258,1.853594183921814
1712835564730407700,11.24240771484375,0.3962988257408142,-1.8907042741775513,1.3099241256713867
1712835564750407400,11.262407470703126,0.5490151643753052,-0.2609158158302307,0.2989421784877777
1712835564770407400,11.282407470703125,0.6736316680908203,1.1110875606536865,-0.09812022745609283
1712835564790407700,11.30240771484375,0.9375254511833191,1.8013652563095093,-0.2410627007484436
1712835564810407700,11.32240771484375,1.1189523935317993,1.5478562116622925,-0.28932106494903564
1712835564830407700,11.34240771484375,1.096961259841919,0.5716935396194458,-0.5012912750244141
1712835564850407700,11.36240771484375,0.9625709056854248,-0.3012329339981079,-0.8940776586532593
1712835564870407700,11.38240771484375,0.7945829629898071,-0.5803983211517334,-1.129260778427124
1712835564890407400,11.402407470703125,0.717613935470581,-0.5724570751190186,-1.0993283987045288
1712835564910407400,11.422407470703124,0.6925684809684753,-0.6103307604789734,-0.9838748574256897
1712835564930407400,11.442407470703126,0.5593998432159424,-0.6555347442626953,-0.9600511193275452
1712835564950407400,11.462407470703125,0.32421672344207764,-0.7923685908317566,-0.8910233378410339
1712835564970407400,11.482407470703125,0.12690725922584534,-0.8687267303466797,-0.7444156408309937
1712835564990407400,11.502407470703124,-0.050243668258190155,-0.6610325574874878,-0.5617669224739075
1712835565010407400,11.522407470703126,-0.14126259088516235,-0.3262783885002136,-0.4689154326915741
1712835565030407400,11.542407470703125,-0.15653422474861145,0.06589708477258682,-0.37606391310691833
1712835565050407400,11.562407470703125,-0.19196440279483795,0.3536146283149719,-0.21907155215740204
1712835565070407400,11.582407470703124,-0.2799290120601654,0.44890961050987244,-0.035811975598335266
1712835565090407400,11.602407470703126,-0.41859540343284607,0.35727980732917786,0.102243572473526
1712835565110407400,11.622407470703125,-0.5896376967430115,0.2632065713405609,0.20120373368263245
1712835565130407400,11.642407470703125,-0.7637342810630798,0.27603474259376526,0.2855031490325928
1712835565150407700,11.66240771484375,-0.9500481486320496,0.36705365777015686,0.3801872432231903
1712835565170407700,11.68240771484375,-1.067945122718811,0.48861584067344666,0.4217261075973511
1712835565190407700,11.70240771484375,-1.1003210544586182,0.4965570867061615,0.39240455627441406
1712835565210407700,11.72240771484375,-1.0196868181228638,0.4409683346748352,0.40828704833984375
1712835565230407700,11.74240771484375,-0.7496843934059143,0.39759692549705505,0.13523028790950775
1712835565250407400,11.762407470703126,-0.38988474011421204,0.6162866950035095,-0.2764928936958313
1712835565270407400,11.782407470703125,0.009010262787342072,1.4464524984359741,-0.5978080034255981
1712835565290407700,11.80240771484375,0.4940372705459595,2.402456760406494,-0.728533148765564
1712835565310407700,11.82240771484375,0.8654433488845825,3.2973742485046387,-0.8390997648239136
1712835565330407700,11.84240771484375,1.0755809545516968,3.7604100704193115,-0.9374490976333618
1712835565350407700,11.86240771484375,1.108567714691162,3.77018404006958,-1.0730611085891724
1712835565370407700,11.88240771484375,1.1427761316299438,3.3474652767181396,-1.2935835123062134
1712835565390407400,11.902407470703125,1.080467939376831,2.9442942142486572,-1.4621822834014893
1712835565410407400,11.922407470703124,0.9075930118560791,3.1177799701690674,-1.5403730869293213
1712835565430407400,11.942407470703126,0.651029646396637,3.4116060733795166,-1.7523432970046997
1712835565450407400,11.962407470703125,0.2393064647912979,3.7121517658233643,-2.1854467391967773
1712835565470407400,11.982407470703125,-0.3013092875480652,3.42626690864563,-2.2416462898254395
1712835565490407400,12.002407470703124,-0.6598871946334839,2.611372470855713,-1.632002830505371
1712835565510407400,12.022407470703126,-1.058171272277832,1.1672871112823486,-0.8690321445465088
1712835565530407400,12.042407470703125,-1.337336778640747,-0.30978503823280334,-0.7108180522918701
1712835565550407400,12.062407470703125,-1.4888312816619873,-0.9823476672172546,-0.7169266939163208
1712835565570407400,12.082407470703124,-1.780824899673462,-0.8931613564491272,-0.11705705523490906
1712835565590407400,12.102407470703126,-1.942704200744629,-0.7056257128715515,0.6758460402488708
1712835565610407400,12.122407470703125,-1.466840147972107,-0.7465536594390869,0.8688794374465942
1712835565630407400,12.142407470703125,-0.7099781036376953,-1.2053134441375732,0.8560512661933899
1712835565650407700,12.16240771484375,-0.13087788224220276,-1.7288249731063843,1.2751048803329468
1712835565670407700,12.18240771484375,0.2692388594150543,-1.7300467491149902,1.922011137008667
1712835565690407700,12.20240771484375,0.6155994534492493,-1.9609538316726685,2.357558012008667
1712835565710407700,12.22240771484375,0.6400340795516968,-2.8448758125305176,2.4754550457000732
1712835565730407700,12.24240771484375,0.22892175614833832,-3.5516469478607178,2.6831493377685547
1712835565750407400,12.262407470703126,-0.28848111629486084,-4.550411701202393,2.3783273696899414
1712835565770407400,12.282407470703125,-0.5364924073219299,-6.273662567138672,1.676443338394165
1712835565790407700,12.30240771484375,0.06520986557006836,-6.521062850952148,1.6379587650299072
1712835565810407700,12.32240771484375,0.9130908250808716,-5.199150562286377,2.3001368045806885
1712835565830407700,12.34240771484375,0.8495608568191528,-3.2040646076202393,2.7185795307159424
1712835565850407700,12.36240771484375,0.7188356518745422,-1.4753159284591675,1.506011962890625
1712835565870407700,12.38240771484375,0.6565274000167847,0.5619196891784668,0.48403435945510864
1712835565890407400,12.402407470703125,0.5801692605018616,1.8752799034118652,0.06314819306135178
1712835565910407400,12.422407470703124,0.7872526049613953,2.5295166969299316,-0.09017898142337799
1712835565930407400,12.442407470703126,0.879493236541748,2.1446714401245117,-0.07735081017017365
1712835565950407400,12.462407470703125,0.7811439037322998,0.7897723913192749,-0.2166280895471573
1712835565970407400,12.482407470703125,0.6687447428703308,-0.6665303111076355,-0.586812436580658
1712835565990407400,12.502407470703124,0.5606215596199036,-1.3280973434448242,-0.7664068341255188
1712835566010407400,12.522407470703126,0.4677700698375702,-1.3305408954620361,-0.7450265288352966
1712835566030407400,12.542407470703125,0.47448956966400146,-0.9915106296539307,-0.6619488596916199
1712835566050407400,12.562407470703125,0.4824308156967163,-0.5144249200820923,-0.6393468379974365
1712835566070407400,12.582407470703124,0.365755558013916,0.0035888333804905415,-0.6240752339363098
1712835566090407400,12.602407470703126,0.07070764899253845,0.4061490297317505,-0.4793001413345337
1712835566110407400,12.622407470703125,-0.11316278576850891,0.45379650592803955,-0.311312198638916
1712835566130407400,12.642407470703125,-0.23350323736667633,0.3090214431285858,-0.13293954730033875
1712835566150407700,12.66240771484375,-0.30314189195632935,0.08544477820396423,-0.02054034359753132
1712835566170407700,12.68240771484375,-0.22861631214618683,-0.14118622243404388,0.06314819306135178
1712835566190407700,12.70240771484375,-0.12782354652881622,-0.32566753029823303,0.18959729373455048
1712835566210407700,12.72240771484375,-0.03436116874217987,-0.3610977232456207,0.3404810130596161
1712835566230407700,12.74240771484375,0.027947084978222847,-0.24992024898529053,0.4412737786769867
1712835566250407400,12.762407470703126,0.012064588256180286,-0.04772384837269783,0.444938987493515
1712835566270407400,12.782407470703125,-0.058795779943466187,0.2235003262758255,0.40767619013786316
1712835566290407700,12.80240771484375,-0.1137736514210701,0.42936190962791443,0.3710242807865143
1712835566310407700,12.82240771484375,-0.14309518039226532,0.5875760316848755,0.3899610936641693
1712835566330407700,12.84240771484375,-0.25671613216400146,0.5771912932395935,0.39179369807243347
1712835566350407700,12.86240771484375,-0.45463645458221436,0.38171443343162537,0.38263070583343506
1712835566370407700,12.88240771484375,-0.5725334286689758,0.15508341789245605,0.3197115957736969
1712835566390407400,12.902407470703125,-0.6433938145637512,0.023747386410832405,0.25251641869544983
1712835566410407400,12.922407470703124,-0.7625125646591187,0.17463110387325287,0.05093089118599892
1712835566430407400,12.942407470703126,-0.8352054953575134,0.5832999348640442,-0.1555415689945221
1712835566450407400,12.962407470703125,-0.6641632318496704,0.8270351886749268,-0.4640285074710846
1712835566470407400,12.982407470703125,-0.32879820466041565,1.283962368965149,-0.7376961708068848
1712835566490407400,13.002407470703124,-0.10461067408323288,1.9662988185882568,-0.9954812526702881
1712835566510407400,13.022407470703126,0.03894266113638878,2.4769821166992188,-1.1579713821411133
1712835566530407400,13.042407470703125,0.164170041680336,2.513634204864502,-1.1689670085906982
1712835566550407400,13.062407470703125,0.2716823220252991,2.153834581375122,-1.2086732387542725
1712835566570407400,13.082407470703124,0.2900082767009735,2.1886537075042725,-1.4853951930999756
1712835566590407400,13.102407470703126,0.11224649101495743,2.6431374549865723,-1.624672532081604
1712835566610407400,13.122407470703125,-0.09728029370307922,3.1287753582000732,-1.651550531387329
1712835566630407400,13.142407470703125,-0.4460843503475189,3.859370231628418,-1.8653533458709717
1712835566650407700,13.16240771484375,-1.1589640378952026,3.5704309940338135,-1.3949871063232422
1712835566670407700,13.18240771484375,-1.6067283153533936,2.464154005050659,-0.9875400066375732
1712835566690407700,13.20240771484375,-1.7411186695098877,1.0622183084487915,-0.870864748954773
1712835566710407700,13.22240771484375,-1.8431332111358643,-0.3384957015514374,-0.6045275330543518
1712835566730407700,13.24240771484375,-2.012953758239746,-1.0660362243652344,-0.10545061528682709
1712835566750407400,13.262407470703126,-2.0636556148529053,-1.5217416286468506,0.28183794021606445
1712835566770407400,13.282407470703125,-2.023949384689331,-1.5962672233581543,0.9556223154067993
1712835566790407700,13.30240771484375,-2.0282254219055176,-1.4441617727279663,0.9879981875419617
1712835566810407700,13.32240771484375,-2.3263275623321533,-1.8174004554748535,0.7803040146827698
1712835566830407700,13.34240771484375,-2.8327348232269287,-1.6469690799713135,1.010600209236145
1712835566850407700,13.36240771484375,-3.0465376377105713,-3.7471237182617188,0.6153703927993774
1712835566870407700,13.38240771484375,-2.5419631004333496,-5.590104103088379,-0.4524220824241638
1712835566890407400,13.402407470703125,-1.0587822198867798,-3.9505419731140137,-0.8452084064483643
1712835566910407400,13.422407470703124,0.3003929853439331,1.5710690021514893,0.5823836326599121
1712835566930407400,13.442407470703126,1.3254249095916748,1.5399149656295776,0.35269832611083984
1712835566950407400,13.462407470703125,0.8520042896270752,1.714011549949646,-0.4988478422164917
1712835566970407400,13.482407470703125,0.5013676285743713,2.5539512634277344,-0.6356816291809082
1712835566990407400,13.502407470703124,0.5655084848403931,3.1794772148132324,-0.4139375686645508
1712835567010407400,13.522407470703126,0.12690725922584534,3.2613332271575928,-0.16898059844970703
1712835567030407400,13.542407470703125,-0.11316278576850891,1.969353199005127,0.017333300784230232
1712835567050407400,13.562407470703125,0.3101668357849121,0.4305836260318756,0.18471038341522217
1712835567070407400,13.582407470703124,0.2399173229932785,-0.13874277472496033,0.0924697294831276
1712835567090407400,13.602407470703126,0.33337971568107605,-0.9261480569839478,0.1724930703639984
1712835567110407400,13.622407470703125,0.011453723534941673,-1.196150541305542,-0.5629886984825134
1712835567130407400,13.642407470703125,-0.8211556077003479,-0.37087157368659973,-0.8171086311340332
1712835567150407700,13.66240771484375,-0.7478517889976501,-1.8406133651733398,-1.6032922267913818
1712835567170407700,13.68240771484375,0.7689266204833984,-4.229096412658691,-1.3241267204284668
1712835567190407700,13.70240771484375,1.8336647748947144,-3.681150436401367,-0.220904141664505
1712835567210407700,13.72240771484375,2.6393959522247314,-1.0519863367080688,-0.060246583074331284
1712835567230407700,13.74240771484375,2.3009767532348633,1.9186513423919678,-0.918512225151062
1712835567250407400,13.762407470703126,1.8825340270996094,5.749998092651367,-1.3277919292449951
1712835567270407400,13.782407470703125,1.8361082077026367,7.6516218185424805,-0.9466120600700378
1712835567290407700,13.80240771484375,1.771356463432312,7.030982494354248,-0.35529449582099915
1712835567310407700,13.82240771484375,1.8611537218093872,3.7426950931549072,-0.4469242990016937
1712835567330407700,13.84240771484375,2.02120041847229,-0.0697149932384491,-0.48113274574279785
1712835567350407700,13.86240771484375,1.7383698225021362,-2.084348678588867,-0.3571271002292633
1712835567370407700,13.88240771484375,1.5233452320098877,-2.4728589057922363,-0.3216969072818756
1712835567390407400,13.902407470703125,1.2289081811904907,-1.6817883253097534,-0.6045275330543518
1712835567410407400,13.922407470703124,1.1158981323242188,-0.30489811301231384,-0.03764457255601883
1712835567430407400,13.942407470703126,1.2820534706115723,0.8282569050788879,1.028926134109497
1712835567450407400,13.962407470703125,1.3321443796157837,1.0426706075668335,1.5677093267440796
1712835567470407400,13.982407470703125,1.362076759338379,0.09644035249948502,1.7870099544525146
1712835567490407400,14.002407470703124,1.5538884401321411,-1.2273045778274536,2.323960542678833
1712835567510407400,14.022407470703126,1.3694071769714355,-1.91941499710083,2.868852376937866
1712835567530407400,14.042407470703125,0.8752171993255615,-3.314631223678589,3.156569719314575
1712835567550407400,14.062407470703125,0.034666601568460464,-4.618828296661377,3.1015918254852295
1712835567570407400,14.082407470703124,-1.2255483865737915,-5.499696254730225,2.480952739715576
1712835567590407400,14.102407470703126,-2.1277964115142822,-6.3872833251953125,1.7650188207626343
1712835567610407400,14.122407470703125,-1.152855396270752,-7.0769500732421875,1.3838388919830322
1712835567630407400,14.142407470703125,0.9582948684692383,-6.976768493652344,1.8236618041992188
1712835567650407700,14.16240771484375,0.7536550164222717,-4.903491497039795,2.0038671493530273
1712835567670407700,14.18240771484375,0.45921793580055237,-1.4075099229812622,1.0423651933670044
1712835567690407700,14.20240771484375,0.6284276247024536,1.161178469657898,0.4015675485134125
1712835567710407700,14.22240771484375,0.7872526049613953,2.8758771419525146,0.10651962459087372
1712835567730407700,14.24240771484375,0.9442449808120728,2.893592357635498,-0.13171781599521637
1712835567750407400,14.262407470703126,1.0963504314422607,1.7079029083251953,-0.19891299307346344
1712835567770407400,14.282407470703125,0.9595165848731995,0.2882520258426666,-0.41515928506851196
1712835567790407700,14.30240771484375,0.7231117486953735,-1.0238865613937378,-0.7254788279533386
1712835567810407700,14.32240771484375,0.7060074806213379,-1.6799558401107788,-0.9264535307884216
1712835567830407700,14.34240771484375,0.7560984492301941,-1.7019469738006592,-0.8714756369590759
1712835567850407700,14.36240771484375,0.7738135457038879,-1.3054953813552856,-0.787176251411438
1712835567870407700,14.38240771484375,0.6974554061889648,-0.7092909216880798,-0.7596873044967651
1712835567890407400,14.402407470703125,0.5135849714279175,-0.041004329919815063,-0.7022659778594971
1712835567910407400,14.422407470703124,0.26313021779060364,0.5277112126350403,-0.5477170348167419
1712835567930407400,14.442407470703126,-0.033139441162347794,0.7573965191841125,-0.35468363761901855
1712835567950407400,14.462407470703125,-0.289702832698822,0.420809805393219,-0.2569451928138733
1712835567970407400,14.482407470703125,-0.3727805018424988,0.08116871863603592,-0.14943291246891022
1712835567990407400,14.502407470703124,-0.40454551577568054,-0.07093672454357147,0.03871358558535576
1712835568010407400,14.522407470703126,-0.3550654351711273,-0.12774719297885895,0.24152085185050964
1712835568030407400,14.542407470703125,-0.2561052441596985,-0.07765624672174454,0.33131805062294006
1712835568050407400,14.562407470703125,-0.23839016258716583,-0.0037415495608001947,0.31238120794296265
1712835568070407400,14.582407470703124,-0.34406983852386475,0.07444920390844345,0.2293035387992859
1712835568090407400,14.602407470703126,-0.3868304193019867,0.22594378888607025,0.20242546498775482
1712835568110407400,14.622407470703125,-0.34284812211990356,0.48433977365493774,0.23052527010440826
1712835568130407400,14.642407470703125,-0.3300199508666992,0.7109707593917847,0.26229026913642883
1712835568150407700,14.66240771484375,-0.3831652104854584,0.7561748027801514,0.28244882822036743
1712835568170407700,14.68240771484375,-0.46929723024368286,0.6792057752609253,0.2891683280467987
1712835568190407700,14.70240771484375,-0.5181664228439331,0.5106070041656494,0.26106852293014526
1712835568210407700,14.72240771484375,-0.5273294448852539,0.23755022883415222,0.22197316586971283
1712835568230407700,14.74240771484375,-0.5975789427757263,-0.00985020212829113,0.10163270682096481
1712835568250407400,14.762407470703126,-0.803440511226654,0.07567093521356583,0.04421137273311615
1712835568270407400,14.782407470703125,-0.9280570149421692,0.32795828580856323,-0.14882203936576843
1712835568290407700,14.80240771484375,-0.7637342810630798,0.6498842835426331,-0.5147303342819214
1712835568310407700,14.82240771484375,-0.5254968404769897,1.0658835172653198,-0.8287150859832764
1712835568330407700,14.84240771484375,-0.23228150606155396,1.748830795288086,-1.041296124458313
1712835568350407700,14.86240771484375,0.06887505948543549,2.633363723754883,-1.1689670085906982
1712835568370407700,14.88240771484375,0.27840182185173035,2.9821677207946777,-1.2514338493347168
1712835568390407400,14.902407470703125,0.365755558013916,2.853886127471924,-1.47134530544281
1712835568410407400,14.922407470703124,0.3724750876426697,2.5576164722442627,-1.889788031578064
1712835568430407400,14.942407470703126,0.30833423137664795,2.5716662406921387,-1.9423223733901978
1712835568450407400,14.962407470703125,0.2704605758190155,3.108616828918457,-2.2416462898254395
1712835568470407400,14.982407470703125,-0.44974952936172485,2.899700880050659,-1.7230217456817627
1712835568490407400,15.002407470703124,-0.8736900091171265,1.9522489309310913,-1.101161003112793
1712835568510407400,15.022407470703126,-0.879187822341919,0.8190939426422119,-1.0480157136917114
1712835568530407400,15.042407470703125,-0.9097310900688171,-0.18394680321216583,-0.9893726110458374
1712835568550407400,15.062407470703125,-1.0630582571029663,-0.6286566853523254,-0.25877779722213745
1712835568570407400,15.082407470703124,-1.1162035465240479,-0.7025713920593262,0.3404810130596161
1712835568590407400,15.102407470703126,-1.0190759897232056,-0.368428111076355,0.4455498456954956
1712835568610407400,15.122407470703125,-0.888961672782898,-0.3024546504020691,0.8804858922958374
1712835568630407400,15.142407470703125,-0.41431936621665955,-0.39103010296821594,1.7106517553329468
1712835568650407700,15.16240771484375,0.013286318629980087,-0.6518695950508118,2.1211531162261963
1712835568670407700,15.18240771484375,-0.02886338345706463,-1.6915621757507324,2.345951557159424
1712835568690407700,15.20240771484375,-0.08017606288194656,-3.2462143898010254,2.418644666671753
1712835568710407700,15.22240771484375,0.10919216275215149,-5.5833845138549805,2.050903797149658
1712835568730407700,15.24240771484375,0.5429064631462097,-7.053737163543701,1.7314212322235107
1712835568750407400,15.262407470703126,1.03037691116333,-5.466709613800049,1.9360610246658325
1712835568770407400,15.282407470703125,1.3125966787338257,-2.6206881999969482,2.759507417678833
1712835568790407700,15.30240771484375,1.3755158185958862,-0.21510092914104462,2.4589617252349854
1712835568810407700,15.32240771484375,1.412778615951538,1.3755922317504883,1.4119386672973633
1712835568830407700,15.34240771484375,1.2796099185943604,2.729269504547119,0.5994879007339478
1712835568850407700,15.36240771484375,1.1714868545532227,3.5429420471191406,0.18409951031208038
1712835568870407700,15.38240771484375,1.21974515914917,3.1965813636779785,0.11812606453895569
1712835568890407400,15.402407470703125,1.2612839937210083,1.077489972114563,-0.0443640872836113
1712835568910407400,15.422407470703124,1.0236574411392212,-0.8161923289299011,-0.4579198658466339
1712835568930407400,15.442407470703126,0.8556694984436035,-1.9230802059173584,-0.8635343909263611
1712835568950407400,15.462407470703125,0.8165740966796875,-2.197969436645508,-0.957607626914978
1712835568970407400,15.482407470703125,0.7701483368873596,-1.9872210025787354,-0.7590764164924622
1712835568990407400,15.502407470703124,0.7475463151931763,-1.505859136581421,-0.5947536826133728
1712835569010407400,15.522407470703126,0.6577491760253906,-0.862618088722229,-0.5660430192947388
1712835569030407400,15.542407470703125,0.48915034532546997,-0.2670244574546814,-0.6185774207115173
1712835569050407400,15.562407470703125,0.24174992740154266,0.27298039197921753,-0.5874232649803162
1712835569070407400,15.582407470703124,-0.08811730891466141,0.5179373621940613,-0.47013717889785767
1712835569090407400,15.602407470703126,-0.3703370690345764,0.5185482501983643,-0.32475122809410095
1712835569110407400,15.622407470703125,-0.6317873597145081,0.40737074613571167,-0.12744176387786865
1712835569130407400,15.642407470703125,-0.8278751373291016,0.2283872365951538,0.054596081376075745
1712835569150407700,15.66240771484375,-0.9921978712081909,-0.0037415495608001947,0.24274258315563202
1712835569170407700,15.68240771484375,-1.1815661191940308,-0.11186470091342926,0.42355868220329285
1712835569190407700,15.70240771484375,-1.3141238689422607,-0.34032830595970154,0.4657084047794342
1712835569210407700,15.72240771484375,-1.3183999061584473,-0.5272530913352966,0.425391286611557
1712835569230407700,15.74240771484375,-1.356884479522705,-0.40996694564819336,0.39179369807243347
1712835569250407400,15.762407470703126,-1.34283447265625,-0.18455766141414642,0.38873937726020813
1712835569270407400,15.782407470703125,-1.3153456449508667,0.1471421718597412,0.33192890882492065
1712835569290407700,15.80240771484375,-1.0960450172424316,0.7164685726165771,0.03260493278503418
1712835569310407700,15.82240771484375,-0.6317873597145081,1.1562916040420532,-0.35590535402297974
1712835569330407700,15.84240771484375,-0.039248090237379074,1.9925661087036133,-0.7401396036148071
1712835569350407700,15.86240771484375,0.4567744731903076,2.887483596801758,-0.7279223203659058
1712835569370407700,15.88240771484375,0.7738135457038879,3.177644729614258,-0.8720865249633789
1712835569390407400,15.902407470703125,0.8758280277252197,3.1244993209838867,-0.9948704242706299
1712835569410407400,15.922407470703124,0.88987797498703,3.1043407917022705,-1.0406852960586548
1712835569430407400,15.942407470703126,0.8684976696968079,3.3383021354675293,-1.16835618019104
1712835569450407400,15.962407470703125,0.7218900322914124,3.602195978164673,-1.7889952659606934
1712835569470407400,15.982407470703125,0.04077525436878204,4.2185587882995605,-2.5434138774871826
1712835569490407400,16.002407470703126,-0.5627595782279968,3.9131264686584473,-1.8372535705566406
1712835569510407400,16.022407470703126,-0.535881519317627,2.34075927734375,-0.9490554928779602
1712835569530407400,16.042407470703125,-0.6159048676490784,0.3389538526535034,-0.7425830364227295
1712835569550407400,16.062407470703125,-0.8901833891868591,-1.185154914855957,-0.8226063847541809
1712835569570407400,16.082407470703124,-0.9030115604400635,-1.7300467491149902,-0.6582836508750916
1712835569590407400,16.102407470703124,-0.8852964639663696,-1.2969433069229126,-0.2520582675933838
1712835569610407400,16.122407470703124,-0.7826710939407349,-0.3965279161930084,0.25068381428718567
1712835569630407400,16.142407470703127,-0.49006664752960205,0.1581377387046814,0.7723627686500549
1712835569650407700,16.16240771484375,-0.10644327104091644,-0.05383250117301941,1.048473834991455
1712835569670407700,16.18240771484375,0.1996002197265625,-0.5901721715927124,1.3826171159744263
1712835569690407700,16.20240771484375,0.44944411516189575,-1.2273045778274536,1.863368034362793
1712835569710407700,16.22240771484375,0.3877467215061188,-2.2224040031433105,2.1297054290771484
1712835569730407700,16.24240771484375,0.021838432177901268,-3.1399238109588623,2.3642776012420654
1712835569750407400,16.262407470703124,-0.39416080713272095,-3.901672601699829,2.678873062133789
1712835569770407400,16.282407470703124,-0.6776022911071777,-5.605986595153809,2.2304980754852295
1712835569790407700,16.30240771484375,-0.6446155309677124,-6.481967449188232,1.2158509492874146
1712835569810407700,16.32240771484375,-0.2970332205295563,-5.116683483123779,1.3551281690597534
1712835569830407700,16.34240771484375,0.8092437386512756,-2.4783565998077393,2.6245062351226807
1712835569850407700,16.36240771484375,0.9027060866355896,-1.1772136688232422,1.9073504209518433
1712835569870407700,16.38240771484375,0.7286095023155212,0.09888381510972977,0.7412086129188538
1712835569890407400,16.402407470703125,0.5868887901306152,1.40980064868927,0.08941540122032166
1712835569910407400,16.422407470703124,0.698066234588623,2.2552380561828613,-0.09017898142337799
1712835569930407400,16.442407470703124,0.8636107444763184,2.0243310928344727,0.045433104038238525
1712835569950407400,16.462407470703123,0.8556694984436035,0.7787768244743347,-0.023594669997692108
1712835569970407400,16.482407470703127,0.7518224120140076,-0.7239516973495483,-0.5110651254653931
1712835569990407400,16.502407470703126,0.6436992287635803,-1.5266286134719849,-0.8989645838737488
1712835570010407400,16.522407470703126,0.6455318331718445,-1.5559501647949219,-0.9893726110458374
1712835570030407400,16.542407470703125,0.6876815557479858,-1.278617262840271,-0.8891907334327698
1712835570050407400,16.562407470703125,0.6363688707351685,-0.8956047892570496,-0.757854700088501
1712835570070407400,16.582407470703124,0.3816380500793457,-0.477772980928421,-0.6729444265365601
1712835570090407400,16.602407470703124,0.07864890247583389,-0.1955532431602478,-0.6075818538665771
1712835570110407400,16.622407470703124,-0.14126259088516235,-0.02695442922413349,-0.49212831258773804
1712835570130407400,16.642407470703127,-0.299476683139801,0.10926852375268936,-0.38095083832740784
1712835570150407700,16.66240771484375,-0.39354994893074036,0.28764116764068604,-0.2508365511894226
1712835570170407700,16.68240771484375,-0.40515637397766113,0.4159228801727295,-0.12622003257274628
1712835570190407700,16.70240771484375,-0.3813326358795166,0.39881864190101624,-0.024205535650253296
1712835570210407700,16.72240771484375,-0.3923282027244568,0.3701079785823822,0.09002626687288284
1712835570230407700,16.74240771484375,-0.4619668424129486,0.3249039649963379,0.19570595026016235
1712835570250407400,16.762407470703124,-0.5480988621711731,0.23632849752902985,0.23602305352687836
1712835570270407400,16.782407470703124,-0.6427829265594482,0.2289981096982956,0.21952970325946808
1712835570290407700,16.80240771484375,-0.7600690722465515,0.32246050238609314,0.20059287548065186
1712835570310407700,16.82240771484375,-0.8706356883049011,0.3407864570617676,0.23602305352687836
1712835570330407700,16.84240771484375,-0.9201157689094543,0.28092166781425476,0.15905404090881348
1712835570350407700,16.86240771484375,-0.9408851861953735,0.4159228801727295,0.03627012297511101
1712835570370407700,16.88240771484375,-0.8290968537330627,0.762283444404602,-0.012599095702171326
1712835570390407400,16.902407470703125,-0.7338019013404846,1.1788935661315918,-0.09323330968618393
1712835570410407400,16.922407470703124,-0.5407684445381165,1.5081499814987183,-0.50251305103302
1712835570430407400,16.942407470703124,-0.21884247660636902,1.9015471935272217,-1.0028116703033447
1712835570450407400,16.962407470703123,0.16661348938941956,2.580829381942749,-1.2465468645095825
1712835570470407400,16.982407470703127,0.44577890634536743,3.0817387104034424,-1.3186290264129639
1712835570490407400,17.002407470703126,0.5337435007095337,3.0212631225585938,-1.4310282468795776
1712835570510407400,17.022407470703126,0.4970915913581848,2.5967118740081787,-1.3992631435394287
1712835570530407400,17.042407470703125,0.5038111209869385,2.1159608364105225,-1.176908254623413
1712835570550407400,17.062407470703125,0.7603744864463806,1.6743053197860718,-1.1634691953659058
1712835570570407400,17.082407470703124,0.870330274105072,1.506317377090454,-1.4927256107330322
1712835570590407400,17.102407470703124,0.7646505832672119,1.721341848373413,-1.5721380710601807
1712835570610407400,17.122407470703124,0.6553056836128235,2.4397194385528564,-1.832977533340454
1712835570630407400,17.142407470703127,-0.033139441162347794,2.731713056564331,-1.5586990118026733
1712835570650407700,17.16240771484375,-0.6855435371398926,2.6217572689056396,-1.006476879119873
1712835570670407700,17.18240771484375,-0.9323330521583557,1.5301411151885986,-0.7737371921539307
1712835570690407700,17.20240771484375,-1.229824423789978,0.27786731719970703,-0.8427649736404419
1712835570710407700,17.22240771484375,-1.669647455215454,-0.23709207773208618,-0.5251150131225586
1712835570730407700,17.24240771484375,-2.1479549407958984,-0.3226132094860077,0.028328875079751015
1712835570750407400,17.262407470703124,-2.2731823921203613,-0.3384957015514374,0.46326494216918945
1712835570770407400,17.282407470703124,-1.6152803897857666,-1.0727556943893433,0.44249552488327026
1712835570790407700,17.30240771484375,-1.0441213846206665,-1.7300467491149902,0.3746894598007202
1712835570810407700,17.32240771484375,-0.9543242454528809,-1.9499582052230835,0.7839691638946533
1712835570830407700,17.34240771484375,-0.7502952218055725,-2.212019443511963,1.22684645652771
1712835570850407700,17.36240771484375,-1.0190759897232056,-2.8974101543426514,1.2451725006103516
1712835570870407700,17.38240771484375,-1.574352502822876,-3.5571446418762207,1.112614631652832
1712835570890407400,17.402407470703125,-1.6995798349380493,-4.06233024597168,0.4162282943725586
1712835570910407400,17.422407470703124,-0.6140722632408142,-3.633502721786499,-0.26855164766311646
1712835570930407400,17.442407470703124,0.015118914656341076,1.0811551809310913,0.4925864636898041
1712835570950407400,17.462407470703123,1.3217597007751465,2.9308550357818604,0.8762098550796509
1712835570970407400,17.482407470703127,1.3590224981307983,2.887483596801758,0.46326494216918945
1712835570990407400,17.502407470703126,0.718224823474884,3.6968801021575928,0.26229026913642883
1712835571010407400,17.522407470703126,1.280220866203308,3.175812005996704,0.4718170464038849
1712835571030407400,17.542407470703125,1.581377387046814,2.1440606117248535,0.6153703927993774
1712835571050407400,17.562407470703125,1.1439979076385498,0.9272170662879944,0.5781075954437256
1712835571070407400,17.582407470703124,0.6864598393440247,-0.7667122483253479,0.8884271383285522
1712835571090407400,17.602407470703124,0.2588541507720947,-0.4289037585258484,-0.2154063582420349
1712835571110407400,17.622407470703124,-1.1516337394714355,0.8380307555198669,-0.41638103127479553
1712835571130407400,17.642407470703127,-1.9274325370788574,-0.2676353454589844,-0.5819255113601685
1712835571150407700,17.66240771484375,-0.8205447196960449,-2.723924398422241,-1.407204508781433
1712835571170407700,17.68240771484375,0.4024074673652649,-4.153348922729492,-1.6002378463745117
1712835571190407700,17.70240771484375,1.1330022811889648,-3.2321643829345703,-0.9545533061027527
1712835571210407700,17.72240771484375,2.0334177017211914,0.9192758202552795,-0.586812436580658
1712835571230407700,17.74240771484375,1.666898488998413,5.247867107391357,-0.596586287021637
1712835571250407400,17.762407470703124,1.1763737201690674,7.550218105316162,-0.8812494874000549
1712835571270407400,17.782407470703124,0.9485210180282593,7.7212605476379395,-1.0058659315109253
1712835571290407700,17.80240771484375,0.8904888033866882,4.437859535217285,-1.4316390752792358
1712835571310407700,17.82240771484375,1.31748366355896,0.06467536091804504,-2.0076849460601807
1712835571330407700,17.84240771484375,1.1659890413284302,-2.6298513412475586,-2.7046821117401123
1712835571350407700,17.86240771484375,0.9369145631790161,-3.1148781776428223,-1.4316390752792358
1712835571370407700,17.88240771484375,0.6766859889030457,-2.164371967315674,0.13156510889530182
1712835571390407400,17.902407470703125,0.8434522151947021,-2.153376340866089,0.7607563138008118
1712835571410407400,17.922407470703124,1.0053315162658691,-1.394681692123413,1.0313695669174194
1712835571430407400,17.942407470703124,0.8006916046142578,0.07872525602579117,1.361236810684204
1712835571450407400,17.962407470703123,0.3969096839427948,0.2289981096982956,2.108935832977295
1712835571470407400,17.982407470703127,-0.003817907767370343,0.10010553896427155,2.8199830055236816
1712835571490407400,18.002407470703126,-0.42470407485961914,-2.346409797668457,3.036229372024536
1712835571510407400,18.022407470703126,-0.5047274231910706,-5.891871452331543,2.703918695449829
1712835571530407400,18.042407470703125,-0.9402743577957153,-8.739725112915039,2.2109503746032715
1712835571550407400,18.062407470703125,-0.6391177773475647,-9.831952095031738,1.6232980489730835
1712835571570407400,18.082407470703124,0.02672535367310047,-6.939505577087402,1.0258718729019165
1712835571590407400,18.102407470703124,1.1537717580795288,-2.109394073486328,1.9201785326004028
1712835571610407400,18.122407470703124,1.6406313180923462,1.5564082860946655,2.5939629077911377
1712835571630407400,18.142407470703127,1.448819637298584,2.703002452850342,1.134605884552002
1712835571650407700,18.16240771484375,1.4457653760910034,3.0175979137420654,0.20547980070114136
1712835571670407700,18.18240771484375,1.2472341060638428,2.919248580932617,0.19570595026016235
1712835571690407700,18.20240771484375,1.26067316532135,2.1691062450408936,0.0466548316180706
1712835571710407700,18.22240771484375,1.1647672653198242,0.04940372705459595,-0.14454598724842072
1712835571730407700,18.24240771484375,0.9405797719955444,-1.3195452690124512,-0.3943898677825928
1712835571750407400,18.262407470703124,0.869719386100769,-1.813124418258667,-0.6558402180671692
1712835571770407400,18.282407470703124,0.860556423664093,-1.5596153736114502,-0.8067238926887512
1712835571790407700,18.30240771484375,0.7506006956100464,-1.0238865613937378,-0.787176251411438
1712835571810407700,18.32240771484375,0.6656904220581055,-0.607276439666748,-0.7370852828025818
1712835571830407700,18.34240771484375,0.5215262174606323,-0.4686099886894226,-0.6943247318267822
1712835571850407700,18.36240771484375,0.3804163336753845,-0.3812562823295593,-0.6026949286460876
1712835571870407700,18.38240771484375,0.21059578657150269,-0.43073636293411255,-0.46586111187934875
1712835571890407400,18.402407470703125,0.026114489883184433,-0.6097198724746704,-0.3058144152164459
1712835571910407400,18.422407470703124,-0.047189339995384216,-0.7575492858886719,-0.20990857481956482
1712835571930407400,18.442407470703124,-0.1437060534954071,-0.7813730239868164,-0.1048397496342659
1712835571950407400,18.462407470703123,-0.22067506611347198,-0.6396522521972656,-0.04375322163105011
1712835571970407400,18.482407470703127,-0.3013092875480652,-0.530307412147522,0.06436992436647415
1712835571990407400,18.502407470703126,-0.26404649019241333,-0.5345834493637085,0.11995866149663925
1712835572010407400,18.522407470703126,-0.20357084274291992,-0.568181037902832,0.1932624876499176
1712835572030407400,18.542407470703125,-0.11682797968387604,-0.38980838656425476,0.2781727612018585
1712835572050407400,18.562407470703125,-0.06551529467105865,-0.16439910233020782,0.3746894598007202
1712835572070407400,18.582407470703124,-0.02825251780450344,0.0567341111600399,0.2726749777793884
1712835572090407400,18.602407470703124,0.00045814894838258624,0.26565003395080566,0.20181460678577423
1712835572110407400,18.622407470703124,-0.05207626149058342,0.37682750821113586,0.26595544815063477
1712835572130407400,18.642407470703127,-0.00809396430850029,0.34811684489250183,0.292833536863327
1712835572150407700,18.66240771484375,0.19165897369384766,0.19417878985404968,0.17982345819473267
1712835572170407700,18.68240771484375,0.39446622133255005,-0.043447788804769516,0.2293035387992859
1712835572190407700,18.70240771484375,0.5606215596199036,-0.26824620366096497,0.3184898793697357
1712835572210407700,18.72240771484375,0.6369797587394714,-0.23525947332382202,0.3148246705532074
1712835572230407700,18.74240771484375,0.7725918292999268,0.10865765810012817,0.1737148016691208
1712835572250407400,18.762407470703124,0.8367326855659485,1.0842094421386719,-0.0492510087788105
1712835572270407400,18.782407470703124,0.6553056836128235,2.128788948059082,-0.28871017694473267
1712835572290407700,18.80240771484375,0.20204368233680725,2.6547439098358154,-0.6295729875564575
1712835572310407700,18.82240771484375,-0.23350323736667633,2.049987316131592,-0.7719045877456665
1712835572330407700,18.84240771484375,-0.7386888265609741,0.6040693521499634,-0.4273765981197357
1712835572350407700,18.86240771484375,-1.3770430088043213,-1.0012844800949097,0.039324451237916946
1712835572370407700,18.88240771484375,-2.0092885494232178,-2.4704153537750244,0.4809800088405609
1712835572390407400,18.902407470703125,-2.52302622795105,-3.452075958251953,1.0167088508605957
1712835572410407400,18.922407470703124,-2.7423267364501953,-4.1038689613342285,1.3618477582931519
1712835572430407400,18.942407470703124,-2.777756929397583,-4.266970157623291,1.2622766494750977
1712835572450407400,18.962407470703123,-2.76615047454834,-3.9413788318634033,1.1914162635803223
1712835572470407400,18.982407470703127,-2.6568057537078857,-3.4532976150512695,1.1504883766174316
1712835572490407400,19.002407470703126,-2.680018663406372,-2.9450576305389404,0.942794144153595
1712835572510407400,19.022407470703126,-2.5889995098114014,-2.5119543075561523,1.030147910118103
1712835572530407400,19.042407470703125,-2.2737932205200195,-2.416048288345337,1.4931837320327759
1712835572550407400,19.062407470703125,-1.9017761945724487,-2.8369345664978027,1.7918968200683594
1712835572570407400,19.082407470703124,-1.8278615474700928,-3.4032065868377686,1.8102227449417114
1712835572590407400,19.102407470703124,-1.1455250978469849,-3.32379412651062,1.7656296491622925
1712835572610407400,19.122407470703124,-1.116814374923706,-2.863201856613159,1.8102227449417114
1712835572630407400,19.142407470703127,-0.6843217611312866,-1.9285778999328613,0.8908706307411194
1712835572650407700,19.16240771484375,-0.23350323736667633,0.6272822618484497,-0.35590535402297974
1712835572670407700,19.18240771484375,0.27351492643356323,1.3810899257659912,-0.8855255246162415
1712835572690407700,19.20240771484375,0.7848091125488281,1.4727197885513306,-1.043739676475525
1712835572710407700,19.22240771484375,1.1513283252716064,1.3517683744430542,-0.7755697965621948
1712835572730407700,19.24240771484375,1.4750868082046509,1.4733306169509888,-0.9356164932250977
1712835572750407400,19.262407470703124,1.8043432235717773,2.3346505165100098,-1.1139891147613525
1712835572770407400,19.282407470703124,1.98332679271698,3.630295753479004,-1.1909581422805786
1712835572790407700,19.30240771484375,2.0810651779174805,4.858134746551514,-1.2624293565750122
1712835572810407700,19.32240771484375,1.9656116962432861,5.702961444854736,-1.2752575874328613
1712835572830407700,19.34240771484375,1.7774651050567627,6.104910850524902,-1.126206398010254
1712835572850407700,19.36240771484375,1.6076445579528809,5.944864273071289,-1.298470377922058
1712835572870407700,19.38240771484375,1.363909363746643,5.2955145835876465,-1.4059827327728271
1712835572890407400,19.402407470703125,0.9515753388404846,4.002312660217285,-1.536707878112793
1712835572910407400,19.422407470703124,0.5557346343994141,2.3151028156280518,-1.6142877340316772
1712835572930407400,19.442407470703124,0.2802344262599945,0.6608798503875732,-1.5819119215011597
1712835572950407400,19.462407470703123,0.0731511116027832,-0.72028648853302,-1.4249194860458374
1712835572970407400,19.482407470703127,-0.2396118938922882,-1.2657891511917114,-1.1396454572677612
1712835572990407400,19.502407470703126,-0.5597052574157715,-1.469818115234375,-0.7877870798110962
1712835573010407400,19.522407470703126,-0.879187822341919,-1.6084845066070557,-0.28932106494903564
1712835573030407400,19.542407470703125,-0.9537133574485779,-1.906586766242981,-0.25999951362609863
1712835573050407400,19.562407470703125,-0.7735081315040588,-2.251725673675537,-0.20685423910617828
1712835573070407400,19.582407470703124,-0.6568328738212585,-1.7960201501846313,0.2439643144607544
1712835573090407400,19.602407470703124,-0.11010845750570297,-0.9414197206497192,0.2677880525588989
1712835573110407400,19.622407470703124,0.7371616363525391,1.076268196105957,0.10468703508377075
1712835573130407400,19.642407470703127,0.8336783647537231,3.282102584838867,-0.09628763794898987
1712835573150407700,19.66240771484375,1.0395399332046509,4.978475570678711,-0.19891299307346344
1712835573170407700,19.68240771484375,1.3180944919586182,5.845293045043945,-0.008933904580771923
1712835573190407700,19.70240771484375,1.432326316833496,5.379202842712402,-0.011988230049610138
1712835573210407700,19.72240771484375,1.3950635194778442,3.7964510917663574,-0.2056325078010559
1712835573230407700,19.74240771484375,0.9790642857551575,2.778749704360962,-0.4188244938850403
1712835573250407400,19.762407470703124,0.40301835536956787,3.2888221740722656,-1.0981066226959229
1712835573270407400,19.782407470703124,-0.3006984293460846,4.181296348571777,-1.5715272426605225
1712835573290407700,19.80240771484375,-0.5346598029136658,4.2038984298706055,-0.8140543103218079
1712835573310407700,19.82240771484375,-0.36422839760780334,2.7420976161956787,-0.03825543448328972
1712835573330407700,19.84240771484375,-0.6763805150985718,0.8343655467033386,0.16455182433128357
1712835573350407700,19.86240771484375,-0.8846855759620667,-0.5193118453025818,0.005726861767470837
1712835573370407700,19.88240771484375,-0.6855435371398926,-1.0519863367080688,0.04787656292319298
1712835573390407400,19.902407470703125,-0.5737552046775818,-0.7740426063537598,0.5597816109657288
1712835573410407400,19.922407470703124,-0.3831652104854584,-0.28718301653862,1.095510482788086
1712835573430407400,19.942407470703124,-0.15531249344348907,-0.28840476274490356,1.579926609992981
1712835573450407400,19.962407470703123,0.03955352306365967,-0.9383653998374939,1.9427804946899414
1712835573470407400,19.982407470703127,0.06276640295982361,-2.228512763977051,2.245769739151001
1712835573490407400,20.002407470703126,-0.3159700334072113,-3.912057399749756,2.471789836883545
1712835573510407700,20.02240771484375,-1.0795515775680542,-5.2651238441467285,2.3832144737243652
1712835573530407700,20.04240771484375,-1.774105429649353,-6.584592819213867,1.9354501962661743
1712835573550407700,20.06240771484375,-1.7325665950775146,-8.04211711883545,1.0032697916030884
1712835573570407700,20.08240771484375,-0.4167627990245819,-7.453243255615234,0.8597164750099182
1712835573590374700,20.102374755859376,-0.005039638374000788,-5.711666584014893,1.3453543186187744
1712835573610341400,20.12234130859375,0.08292495459318161,-2.4734697341918945,1.761353611946106
1712835573630307800,20.142307861328124,0.35292738676071167,-0.40508002042770386,0.8676577210426331
1712835573650274600,20.162274658203124,0.46960264444351196,1.1037571430206299,0.09430231899023056
1712835573670241300,20.1822412109375,0.3975205719470978,2.4036784172058105,-0.2575560510158539
1712835573690208000,20.2022080078125,0.556345522403717,2.6022095680236816,-0.11217013001441956
1712835573710174700,20.2221748046875,0.7701483368873596,1.6284903287887573,-0.1909717470407486
1712835573730141200,20.24214111328125,0.7475463151931763,0.0872773751616478,-0.6430120468139648
1712835573750107600,20.262107666015623,0.727998673915863,-0.8381834626197815,-0.9441685676574707
1712835573770074400,20.282074462890623,0.7475463151931763,-1.1973721981048584,-0.919734001159668
1712835573790041000,20.302041015625,0.699288010597229,-1.2645673751831055,-0.7157049775123596
1712835573810007600,20.322007568359375,0.5490151643753052,-1.1368966102600098,-0.5513822436332703
1712835573829974300,20.341974365234375,0.285121351480484,-1.0397690534591675,-0.4591415822505951
1712835573849941000,20.36194091796875,0.10064005106687546,-0.7813730239868164,-0.33941200375556946
1712835573869907700,20.38190771484375,-0.027030786499381065,-0.35071301460266113,-0.2679407596588135
1712835573889874200,20.401874267578126,-0.11316278576850891,0.11110111325979233,-0.2111303061246872
1712835573909840600,20.421840576171874,-0.1992947906255722,0.48983755707740784,-0.10911580175161362
1712835573929807400,20.441807373046874,-0.30375275015830994,0.7598400115966797,0.02099849283695221
1712835573949774000,20.461774169921874,-0.40026944875717163,0.7745007872581482,0.1724930703639984
1712835573969740800,20.48174072265625,-0.5468770861625671,0.6627124547958374,0.2702315151691437
1712835573989707500,20.50170751953125,-0.745408296585083,0.601625919342041,0.2946661114692688
1712835574009674200,20.52167431640625,-0.9335548281669617,0.6865361928939819,0.3337614834308624
1712835574029640700,20.541640625,-1.0862711668014526,0.715246856212616,0.36735907196998596
1712835574049607400,20.561607421875,-1.0386236906051636,0.6816492676734924,0.2946661114692688
1712835574069574100,20.58157421875,-0.9207266569137573,0.6419430375099182,0.30199649930000305
1712835574089541000,20.601541015625,-0.6873761415481567,0.7854963541030884,0.3465896546840668
1712835574109507600,20.621507568359377,-0.5065600275993347,1.0646617412567139,0.0038942659739404917
1712835574129474000,20.64147412109375,-0.23289237916469574,1.2540299892425537,-0.7431939244270325
1712835574149440800,20.661440673828125,0.49525898694992065,2.7549259662628174,-1.1145999431610107
1712835574169407500,20.681407470703125,0.9564622640609741,4.169689655303955,-1.1756864786148071
1712835574189406700,20.70140673828125,1.018770456314087,4.476954936981201,-1.2147818803787231
1712835574209406700,20.72140673828125,0.9106473922729492,4.141590118408203,-1.16835618019104
1712835574229406700,20.74140673828125,0.8965974450111389,3.2295682430267334,-1.2471578121185303
1712835574249406700,20.76140673828125,0.8904888033866882,2.6797895431518555,-1.16530179977417
1712835574269406700,20.78140673828125,0.9204211831092834,3.3389129638671875,-1.387656807899475
1712835574289406700,20.80140673828125,0.2808452844619751,3.859370231628418,-1.8677968978881836
1712835574309406700,20.82140673828125,-0.13698652386665344,4.151974678039551,-1.47134530544281
1712835574329406700,20.84140673828125,-0.09483683109283447,2.9510135650634766,-0.6405685544013977
1712835574349406700,20.86140673828125,-0.2664899528026581,0.8942303657531738,-0.46036332845687866
1712835574369406700,20.88140673828125,-0.1791362315416336,-0.8369617462158203,-0.7926740050315857
1712835574389406700,20.90140673828125,0.1647808998823166,-1.2541826963424683,-0.39011383056640625
1712835574409406700,20.92140673828125,0.23869559168815613,-0.7923685908317566,0.2751184403896332
1712835574429406700,20.94140673828125,0.30711251497268677,-0.2205987125635147,0.8022951483726501
1712835574449406700,20.96140673828125,0.3865249752998352,0.0671188160777092,1.3178653717041016
1712835574469406700,20.98140673828125,0.42562034726142883,-0.3110067546367645,1.7179821729660034
1712835574489406700,21.00140673828125,0.38957929611206055,-1.2389110326766968,2.000201940536499
1712835574509407000,21.021406982421876,0.0377209298312664,-2.301205635070801,2.198122262954712
1712835574529407000,21.041406982421876,-0.4570799171924591,-3.7709474563598633,2.2390501499176025
1712835574549407000,21.061406982421875,-1.231046199798584,-5.095914363861084,2.0936641693115234
1712835574569407000,21.081406982421875,-1.8498526811599731,-6.302372932434082,1.371010661125183
1712835574589407000,21.101406982421874,-1.7405078411102295,-7.130095481872559,0.6715700030326843
1712835574609407000,21.121406982421874,-0.7600690722465515,-6.21746301651001,1.0124328136444092
1712835574629407000,21.141406982421874,-0.11621711403131485,-3.6677112579345703,1.6379587650299072
1712835574649407000,21.161406982421877,0.23136521875858307,-1.5974889993667603,1.161483883857727
1712835574669407000,21.181406982421876,0.09697485715150833,-0.367817223072052,0.33315062522888184
1712835574689406700,21.20140673828125,-0.005650503560900688,1.2265410423278809,-0.190360888838768
1712835574709406700,21.22140673828125,0.23136521875858307,2.3725242614746094,-0.2013564556837082
1712835574729406700,21.24140673828125,0.6235406994819641,2.427502155303955,-0.06269004940986633
1712835574749406700,21.26140673828125,0.7402159571647644,1.3340532779693604,-0.2654972970485687
1712835574769406700,21.28140673828125,0.6901249885559082,-0.06238461285829544,-0.7114289402961731
1712835574789407000,21.301406982421874,0.6479753255844116,-1.0110583305358887,-0.9014080166816711
1712835574809407000,21.321406982421873,0.7072292566299438,-1.4838680028915405,-0.7951174974441528
1712835574829407000,21.341406982421876,0.7719809412956238,-1.5425111055374146,-0.6356816291809082
1712835574849407000,21.361406982421876,0.6913467645645142,-1.1772136688232422,-0.5006804466247559
1712835574869407000,21.381406982421876,0.47082439064979553,-0.8161923289299011,-0.3937790095806122
1712835574889407000,21.401406982421875,0.1598939746618271,-0.34460434317588806,-0.2514474093914032
1712835574909407000,21.421406982421875,-0.10766500234603882,0.16974417865276337,-0.13171781599521637
1712835574929407000,21.441406982421874,-0.3397938013076782,0.6407212615013123,-0.09140071272850037
1712835574949373700,21.461373779296874,-0.46929723024368286,0.934547483921051,-0.030314188450574875
1712835574969340400,21.48134033203125,-0.5474879741668701,0.9235519170761108,0.0869719386100769
1712835574989307100,21.50130712890625,-0.6440047025680542,0.7445683479309082,0.22624921798706055
1712835575009273900,21.52127392578125,-0.7814493775367737,0.3646101951599121,0.2940552532672882
1712835575029240300,21.541240234375,-0.8614727258682251,0.09094256162643433,0.20425806939601898
1712835575049207000,21.56120703125,-0.7307475209236145,0.12148582190275192,0.0619264654815197
1712835575069173800,21.581173828125,-0.612850546836853,0.6779840588569641,-0.09873109310865402
1712835575089140500,21.601140380859373,-0.4772384762763977,1.5301411151885986,-0.38950294256210327
1712835575109107000,21.62110693359375,-0.24205535650253296,2.4287238121032715,-0.8427649736404419
1712835575129073400,21.641073486328125,0.06887505948543549,3.3718998432159424,-1.2978595495224
1712835575149040000,21.6610400390625,0.3364340364933014,3.926565408706665,-1.449965000152588
1712835575169006800,21.6810068359375,0.266184538602829,3.7207038402557373,-1.3149638175964355
1712835575188973600,21.7009736328125,0.13301590085029602,3.153209924697876,-1.3656655550003052
1712835575208940000,21.72093994140625,0.09208793938159943,2.631531000137329,-1.317407250404358
1712835575228907000,21.740906982421876,0.10308351367712021,2.131232500076294,-1.458517074584961
1712835575248873700,21.760873779296876,0.02977968007326126,2.3309853076934814,-1.6747634410858154
1712835575268840400,21.78084033203125,-0.4576907753944397,2.865492582321167,-2.379701852798462
1712835575288807200,21.80080712890625,-0.5878050923347473,3.3309717178344727,-1.4340825080871582
1712835575308774000,21.82077392578125,-0.3764457106590271,2.0298287868499756,-0.23312145471572876
1712835575328740400,21.840740234375,-0.14187344908714294,-0.25297456979751587,-0.31497737765312195
1712835575348707000,21.86070703125,0.21609358489513397,-1.595656394958496,-0.7444156408309937
1712835575368674000,21.880674072265624,0.670577347278595,-1.4954744577407837,-0.2667190432548523
1712835575388640800,21.900640869140624,0.7231117486953735,-0.36598464846611023,0.6789003610610962
1712835575408607500,21.920607421875,0.6565274000167847,0.6474407911300659,1.4681382179260254
1712835575428574200,21.94057421875,0.7286095023155212,0.8752935528755188,1.807779312133789
1712835575448540700,21.960540771484375,0.8831584453582764,0.401262104511261,1.9311741590499878
1712835575468507400,21.98050732421875,0.8245153427124023,-0.6347653269767761,1.8768070936203003
1712835575488474000,22.00047412109375,0.5141957998275757,-2.2077434062957764,2.0014235973358154
1712835575508440800,22.02044091796875,-0.04596760869026184,-3.8631882667541504,2.011197566986084
1712835575528407300,22.0404072265625,-0.936609148979187,-5.953568935394287,1.7729600667953491
1712835575548407300,22.0604072265625,-1.6103935241699219,-8.207051277160645,0.8090146780014038
1712835575568407300,22.0804072265625,-1.3269519805908203,-8.6884126663208,0.6953937411308289
1712835575588407300,22.1004072265625,0.020005837082862854,-6.907740592956543,1.3374130725860596
1712835575608407300,22.1204072265625,0.3956879675388336,-2.817997694015503,1.5261704921722412
1712835575628407300,22.1404072265625,0.3712533414363861,-0.38980838656425476,0.933020293712616
1712835575648407300,22.1604072265625,0.365755558013916,1.6914094686508179,-0.09812022745609283
1712835575668407300,22.1804072265625,0.41462478041648865,2.552729606628418,-0.39622247219085693
1712835575688407300,22.2004072265625,0.7383833527565002,2.745762825012207,-0.23006711900234222
1712835575708407300,22.2204072265625,0.9790642857551575,1.7543286085128784,-0.1604284793138504
1712835575728407800,22.24040771484375,0.9033169746398926,0.029856039211153984,-0.5617669224739075
1712835575748407800,22.26040771484375,0.8452847599983215,-1.1057424545288086,-0.9588293433189392
1712835575768407800,22.28040771484375,0.8727737069129944,-1.278617262840271,-1.0296896696090698
1712835575788407800,22.30040771484375,0.7713701128959656,-1.1368966102600098,-0.8171086311340332
1712835575808407800,22.32040771484375,0.556345522403717,-1.0055605173110962,-0.5471062064170837
1712835575828407300,22.3404072265625,0.3260493278503418,-1.006171464920044,-0.3974441885948181
1712835575848407300,22.3604072265625,0.1941024363040924,-0.8516225218772888,-0.3485749661922455
1712835575868407800,22.38040771484375,0.03955352306365967,-0.24747678637504578,-0.20685423910617828
1712835575888407800,22.40040771484375,-0.2054034322500229,0.4721224904060364,-0.05597052723169327
1712835575908407800,22.42040771484375,-0.3831652104854584,0.8649088144302368,0.05276348441839218
1712835575928407800,22.44040771484375,-0.5126686692237854,0.9430995583534241,0.14378240704536438
1712835575948407800,22.46040771484375,-0.6568328738212585,0.7818311452865601,0.2280818074941635
1712835575968407300,22.4804072265625,-0.7857254147529602,0.6138432025909424,0.3148246705532074
1712835575988407300,22.5004072265625,-0.8639161586761475,0.4305836260318756,0.4095087945461273
1712835576008407300,22.5204072265625,-0.9720393419265747,0.21678079664707184,0.41317397356033325
1712835576028407300,22.5404072265625,-0.9231700897216797,0.1581377387046814,0.34170275926589966
1712835576048407300,22.5604072265625,-0.7722864151000977,0.3945426046848297,0.24090997874736786
1712835576068407300,22.5804072265625,-0.6702718734741211,0.8429176807403564,-0.0009926559869199991
1712835576088407300,22.6004072265625,-0.3159700334072113,1.0781008005142212,-0.5544365644454956
1712835576108407300,22.6204072265625,0.5013676285743713,2.4818692207336426,-1.0577895641326904
1712835576128407300,22.6404072265625,1.0529789924621582,3.649843454360962,-1.0895545482635498
1712835576148407300,22.6604072265625,1.0138835906982422,4.05423641204834,-1.0596221685409546
1712835576168407300,22.6804072265625,1.0169379711151123,3.9216785430908203,-1.2074514627456665
1712835576188407300,22.7004072265625,0.9589056968688965,3.482466459274292,-1.4218652248382568
1712835576208407300,22.7204072265625,0.6730207800865173,3.7237582206726074,-1.6020704507827759
1712835576228407800,22.74040771484375,0.2197587788105011,3.680997610092163,-1.9563722610473633
1712835576248407800,22.76040771484375,-0.17730364203453064,3.7775142192840576,-2.0376174449920654
1712835576268407800,22.78040771484375,-0.6409503817558289,2.957122325897217,-1.1329259872436523
1712835576288407800,22.80040771484375,-0.8443684577941895,0.8624653816223145,-0.5238932967185974
1712835576308407800,22.82040771484375,-0.6879869699478149,-1.2694543600082397,-0.7902305722236633
1712835576328407300,22.8404072265625,-0.3110831379890442,-1.9035325050354004,-0.6515641212463379
1712835576348407300,22.8604072265625,-0.07406741380691528,-1.0654253959655762,0.1987602859735489
1712835576368407800,22.88040771484375,0.00045814894838258624,0.514272153377533,1.0961213111877441
1712835576388407800,22.90040771484375,0.09758572280406952,1.5948927402496338,2.0020344257354736
1712835576408407800,22.92040771484375,0.3975205719470978,1.3481032848358154,2.4363596439361572
1712835576428407800,22.94040771484375,0.6742424964904785,0.008475755341351032,2.332512617111206
1712835576448407800,22.96040771484375,0.7457137703895569,-2.1045072078704834,1.9672151803970337
1712835576468407300,22.9804072265625,0.5923865437507629,-3.613344192504883,1.7350863218307495
1712835576488407300,23.0004072265625,-0.11194105446338654,-5.2229743003845215,1.3386348485946655
1712835576508407300,23.0204072265625,-0.9537133574485779,-6.595588207244873,0.6599635481834412
1712835576528407300,23.0404072265625,-1.133307695388794,-7.683539390563965,0.7143305540084839
1712835576548407300,23.0604072265625,-0.18341228365898132,-7.23394250869751,1.5750396251678467
1712835576568407300,23.0804072265625,0.9277516007423401,-5.194874286651611,1.9183459281921387
1712835576588407300,23.1004072265625,0.7713701128959656,-2.5382213592529297,0.9342420101165771
1712835576608407300,23.1204072265625,0.3926336467266083,-0.15462526679039001,0.06559165567159653
1712835576628407300,23.1404072265625,0.2600758671760559,2.1159608364105225,-0.3974441885948181
1712835576648407300,23.1604072265625,0.5765040516853333,3.661449909210205,-0.25450173020362854
1712835576668407300,23.1804072265625,0.9802860021591187,3.4250450134277344,-0.015653422102332115
1712835576688407300,23.2004072265625,0.99250328540802,1.4397330284118652,-0.3931681513786316
1712835576708407300,23.2204072265625,0.7518224120140076,-0.8644506931304932,-0.9270643591880798
1712835576728407800,23.24040771484375,0.6821837425231934,-2.106950521469116,-1.1439214944839478
1712835576748407800,23.26040771484375,0.8330674767494202,-2.482632637023926,-0.9942595362663269
1712835576768407800,23.28040771484375,0.869719386100769,-2.153987169265747,-0.7053202986717224
1712835576788407800,23.30040771484375,0.7261660695075989,-1.3054953813552856,-0.5159520506858826
1712835576808407800,23.32040771484375,0.40851613879203796,-0.4643339514732361,-0.4023311138153076
1712835576828407300,23.3404072265625,0.08109235763549805,0.22227859497070312,-0.25022566318511963
1712835576848407300,23.3604072265625,-0.20906862616539001,0.6566037535667419,-0.1152244582772255
1712835576868407800,23.38040771484375,-0.38866302371025085,0.762283444404602,-0.009544769302010536
1712835576888407800,23.40040771484375,-0.4943426847457886,0.5264894962310791,0.08452847599983215
1712835576908407800,23.42040771484375,-0.5798638463020325,0.19173532724380493,0.14378240704536438
1712835576928407800,23.44040771484375,-0.6592763066291809,-0.015347989276051521,0.2085341215133667
1712835576948407800,23.46040771484375,-0.7313584089279175,-0.06238461285829544,0.2677880525588989
1712835576968407300,23.4804072265625,-0.8046622276306152,0.12637275457382202,0.2751184403896332
1712835576988407300,23.5004072265625,-0.9488264322280884,0.43302708864212036,0.2549598813056946
1712835577008407300,23.5204072265625,-1.1589640378952026,0.601015031337738,0.21219931542873383
1712835577028407300,23.5404072265625,-1.2652546167373657,0.7378488779067993,0.152334526181221
1712835577048407300,23.5604072265625,-1.1546880006790161,0.7867180705070496,-0.030925052240490913
1712835577068407300,23.5804072265625,-0.9665415287017822,0.9919688105583191,-0.0339793786406517
1712835577088407300,23.6004072265625,-0.7111998796463013,1.256473422050476,-0.36140313744544983
1712835577108407300,23.6204072265625,-0.2499966025352478,1.7366135120391846,-0.9557750225067139
1712835577128407300,23.6404072265625,0.4616613984107971,2.8282296657562256,-1.3473396301269531
1712835577148407300,23.6604072265625,0.9888381361961365,3.8019490242004395,-1.4579062461853027
1712835577168407300,23.6804072265625,1.0395399332046509,4.058512210845947,-1.613676905632019
1712835577188407300,23.7004072265625,0.9766207933425903,3.8471529483795166,-1.7303521633148193
1712835577208407300,23.7204072265625,0.7237225770950317,3.9693260192871094,-1.9924134016036987
1712835577228407800,23.74040771484375,0.37369680404663086,3.8935787677764893,-2.6661977767944336
1712835577248407800,23.76040771484375,-0.260992169380188,3.678554058074951,-2.597169876098633
1712835577268407800,23.78040771484375,-0.4583016633987427,2.5099689960479736,-1.7046958208084106
1712835577288407800,23.80040771484375,-0.613461434841156,0.6602689623832703,-0.9313403964042664
1712835577308407800,23.82040771484375,-0.6397286057472229,-1.1149054765701294,-0.9942595362663269
1712835577328407300,23.8404072265625,-0.28848111629486084,-1.8699349164962769,-1.0779480934143066
1712835577348407300,23.8604072265625,-0.0685696229338646,-1.4777593612670898,-0.6088035702705383
1712835577368407800,23.88040771484375,-0.06551529467105865,-0.4893794059753418,0.1529453843832016
1712835577388407800,23.90040771484375,0.12507465481758118,0.4855615198612213,0.7961865067481995
1712835577408407800,23.92040771484375,0.3517056703567505,0.8435285687446594,1.1303297281265259
1712835577428407800,23.94040771484375,0.5881105065345764,0.7470118403434753,1.5921438932418823
1712835577448407800,23.96040771484375,0.822682797908783,0.32184961438179016,2.1639137268066406
1712835577468407300,23.9804072265625,0.9088147878646851,-0.28901562094688416,2.6049585342407227
1712835577488407300,24.0004072265625,0.6858489513397217,-1.2951107025146484,2.7607290744781494
1712835577508407300,24.0204072265625,0.12202033400535583,-2.404442071914673,3.108311414718628
1712835577528407300,24.0404072265625,-0.7252497673034668,-4.7092366218566895,2.7772223949432373
1712835577548407300,24.0604072265625,-1.5835154056549072,-6.596810340881348,1.9366718530654907
1712835577568407300,24.0804072265625,-1.3458888530731201,-7.977365493774414,0.9385181069374084
1712835577588407300,24.1004072265625,0.2454151064157486,-7.5931315422058105,1.1602622270584106
1712835577608407300,24.1204072265625,0.7548767328262329,-4.697019100189209,1.5451072454452515
1712835577628407300,24.1404072265625,0.8300131559371948,-1.1955395936965942,1.2696070671081543
1712835577648407300,24.1604072265625,1.0242682695388794,1.2919036149978638,0.4907538592815399
1712835577668407300,24.1804072265625,1.0462594032287598,3.0988430976867676,0.03749185428023338
1712835577688407300,24.2004072265625,0.9619600176811218,3.244839906692505,-0.27527114748954773
1712835577708407300,24.2204072265625,1.1146763563156128,2.5661685466766357,-0.41515928506851196
1712835577728407800,24.24040771484375,1.0261008739471436,0.9986883401870728,-0.6240752339363098
1712835577748407800,24.26040771484375,0.7958046793937683,-0.6567565202713013,-1.0211375951766968
1712835577768407800,24.28040771484375,0.7701483368873596,-1.4624876976013184,-1.281366229057312
1712835577788407800,24.30040771484375,0.6717990636825562,-1.4062881469726562,-1.157360553741455
1712835577808407800,24.32040771484375,0.5942191481590271,-1.0861947536468506,-0.9618836641311646
1712835577828407300,24.3404072265625,0.5551238059997559,-0.8308531045913696,-0.8048913478851318
1712835577848407300,24.3604072265625,0.3871358633041382,-0.7715991735458374,-0.6271295547485352
1712835577868407800,24.38040771484375,0.2050980031490326,-0.6304892897605896,-0.47013717889785767
1712835577888407800,24.40040771484375,0.031612277030944824,-0.30489811301231384,-0.4029420018196106
1712835577908407800,24.42040771484375,-0.2096794992685318,0.1471421718597412,-0.24228443205356598
1712835577928407800,24.44040771484375,-0.4466952085494995,0.4702898859977722,-0.04375322163105011
1712835577948407800,24.46040771484375,-0.6299547553062439,0.5790238976478577,0.1071304902434349
1712835577968407300,24.4804072265625,-0.764345109462738,0.5368741750717163,0.21158844232559204
1712835577988407300,24.5004072265625,-0.8828529715538025,0.40309470891952515,0.3392592966556549
1712835578008407300,24.5204072265625,-0.9860892295837402,0.36155587434768677,0.4626540541648865
1712835578028407300,24.5404072265625,-1.069166898727417,0.49289190769195557,0.5622251033782959
1712835578048407300,24.5604072265625,-1.0209085941314697,0.38415786623954773,0.477314829826355
1712835578068407300,24.5804072265625,-0.8602510094642639,0.4623486399650574,0.41378483176231384
1712835578088407300,24.6004072265625,-0.7179193496704102,0.8032114505767822,0.334983229637146
1712835578108407300,24.6204072265625,-0.7851145267486572,0.6614906787872314,-0.10422888398170471
1712835578128407300,24.6404072265625,-0.3550654351711273,0.8117635250091553,-0.7419722080230713
1712835578148407300,24.6604072265625,0.3058907687664032,2.137341022491455,-0.9753227233886719
1712835578168407300,24.6804072265625,0.7273877859115601,3.116558074951172,-1.0156397819519043
1712835578188407300,24.7004072265625,0.7463245987892151,3.318143606185913,-1.2453252077102661
1712835578208407300,24.7204072265625,0.7664831876754761,3.4146604537963867,-1.4017066955566406
1712835578228407800,24.74040771484375,0.6265950202941895,3.161762237548828,-1.458517074584961
1712835578248407800,24.76040771484375,0.4231768846511841,2.7390434741973877,-1.5128841400146484
1712835578268407800,24.78040771484375,0.204487144947052,2.715219736099243,-1.5348752737045288
1712835578288407800,24.80040771484375,-0.039248090237379074,2.7219390869140625,-1.6857589483261108
1712835578308407800,24.82040771484375,-0.4870123267173767,2.6584091186523438,-1.9215530157089233
1712835578328407300,24.8404072265625,-0.5719226002693176,2.2815053462982178,-1.336954951286316
1712835578348407300,24.8604072265625,-0.4833471179008484,0.8618544936180115,-0.5251150131225586
1712835578368407800,24.88040771484375,-0.1797471046447754,-0.8351291418075562,-0.37606391310691833
1712835578388407800,24.90040771484375,0.2704605758190155,-1.9450713396072388,-0.4854087829589844
