time,seconds_elapsed,z,y,x
1712834884759064800,0.11106494140625,-0.04647541046142578,-0.3534083366394043,-0.09715104103088379
1712834884779064800,0.13106494140625,0.062155723571777344,-0.16395235061645508,-0.26135754585266113
1712834884799073000,0.151072998046875,-0.005974292755126953,-0.19811439514160156,-0.10809731483459473
1712834884819073000,0.171072998046875,-0.1352839469909668,-0.3118619918823242,0.047063350677490234
1712834884839073000,0.191072998046875,-0.15392732620239258,-0.47624731063842773,0.5540282726287842
1712834884859073000,0.211072998046875,0.11307144165039062,-0.07380294799804688,0.3097820281982422
1712834884879073000,0.231072998046875,0.05670499801635742,0.013686180114746094,-0.21129631996154785
1712834884899073000,0.251072998046875,-0.027617454528808594,-0.39971351623535156,-0.015478372573852539
1712834884919073000,0.271072998046875,-0.2702641487121582,-0.6585578918457031,0.9837870597839355
1712834884939073000,0.291072998046875,-0.5717387199401855,-0.4681425094604492,1.1662272214889526
1712834884959073000,0.311072998046875,-0.6169257164001465,-1.0246071815490723,6.263337135314941
1712834884979073000,0.331072998046875,2.142930507659912,-0.7297959327697754,6.032447814941406
1712834884999073000,0.351072998046875,-1.8544201850891113,1.6264901161193848,9.42162036895752
1712834885019073000,0.371072998046875,-2.7989625930786133,4.176995277404785,4.192412376403809
1712834885039073000,0.391072998046875,-5.2594990730285645,2.3310885429382324,-2.8999505043029785
1712834885059073000,0.411072998046875,-4.125916481018066,-0.19968652725219727,-4.05571174621582
1712834885079073000,0.431072998046875,-2.0539352893829346,-0.240447998046875,-0.8913369178771973
1712834885099073000,0.451072998046875,-1.0425314903259277,0.6269130706787109,0.6478910446166992
1712834885119073000,0.471072998046875,-0.20844602584838867,0.3580927848815918,0.9808924198150635
1712834885139073000,0.491072998046875,-0.015807628631591797,-0.1288151741027832,1.497912883758545
1712834885159073300,0.5110732421875,-0.5575189590454102,0.3467411994934082,2.615722179412842
1712834885179073300,0.5310732421875,-1.2954320907592773,1.083885669708252,2.4844799041748047
1712834885199073300,0.5510732421875,-1.8645069599151611,2.2843260765075684,1.1932306289672852
1712834885219073300,0.5710732421875,-2.2046096324920654,4.168142795562744,-0.5808112621307373
1712834885239073300,0.5910732421875,-2.7500858306884766,3.6623282432556152,-3.0135223865509033
1712834885260935200,0.61293505859375,-2.5957484245300293,3.519772529602051,-3.1326661109924316
1712834885280935200,0.63293505859375,-2.169572114944458,2.1871986389160156,-2.1960699558258057
1712834885300935400,0.652935302734375,-2.129188299179077,2.064584732055664,-2.456726312637329
1712834885320935400,0.672935302734375,0.48473072052001953,2.7486391067504883,-1.4120111465454102
1712834885340935400,0.692935302734375,0.5012993812561035,2.6552324295043945,-1.686011791229248
1712834885360935400,0.712935302734375,0.2570657730102539,1.9427995681762695,-2.162785530090332
1712834885380935400,0.732935302734375,-0.2732410430908203,1.17779541015625,-2.1580779552459717
1712834885400935200,0.75293505859375,-0.42346906661987305,0.7425508499145508,-1.69974684715271
1712834885420935200,0.77293505859375,-0.4209098815917969,0.6869945526123047,-2.039560079574585
1712834885440935200,0.79293505859375,0.012060165405273438,0.13790607452392578,0.07611936330795288
1712834885460935200,0.81293505859375,0.10935831069946289,-0.49492645263671875,-0.2533508539199829
1712834885480935200,0.83293505859375,-0.06237649917602539,-0.8539776802062988,-0.20011749863624573
1712834885500935200,0.85293505859375,0.31946563720703125,-0.21968841552734375,-0.20051218569278717
1712834885520935200,0.87293505859375,0.3488492965698242,-0.23356914520263672,-0.29488009214401245
1712834885540935200,0.89293505859375,1.824038028717041,0.007683753967285156,-0.7961822748184204
1712834885560935200,0.91293505859375,1.7688193321228027,0.035141944885253906,-0.6314319372177124
1712834885580935200,0.93293505859375,2.137631416320801,-0.13387489318847656,-5.1097612380981445
1712834885600935200,0.95293505859375,1.5060820579528809,0.16329669952392578,-3.1913468837738037
1712834885620935200,0.97293505859375,0.6838221549987793,-0.7176609039306641,-4.836813449859619
1712834885640935200,0.99293505859375,0.14247989654541016,-1.818871021270752,-7.527401924133301
1712834885660935400,1.012935302734375,-0.5925948619842529,-2.6334290504455566,-7.61457633972168
1712834885680935400,1.032935302734375,0.06897306442260742,-1.9793548583984375,-5.9440460205078125
1712834885700935400,1.052935302734375,0.1279749870300293,-1.8481483459472656,-5.488474369049072
1712834885720935400,1.072935302734375,-0.20725107192993164,-1.7289838790893555,-4.201780319213867
1712834885740935400,1.092935302734375,-0.6122345924377441,-2.3739395141601562,-4.8837456703186035
1712834885760935200,1.11293505859375,-1.118755578994751,-1.6481008529663086,-5.456003665924072
1712834885780935200,1.13293505859375,-0.989504337310791,-1.3355374336242676,-4.90916109085083
1712834885800935400,1.152935302734375,-1.634131908416748,-1.2148809432983398,-5.038358211517334
1712834885820935400,1.172935302734375,-3.5819449424743652,-0.7075967788696289,-4.590656280517578
1712834885840935400,1.192935302734375,-4.471532821655273,-0.7366752624511719,-3.3746862411499023
1712834885860935400,1.212935302734375,-6.408241271972656,-1.7322182655334473,0.5163736343383789
1712834885880935400,1.232935302734375,-9.964337348937988,-1.4557723999023438,5.553586006164551
1712834885900935200,1.25293505859375,-9.117521286010742,-0.21405315399169922,14.192956924438477
1712834885920935200,1.27293505859375,-4.077215671539307,-1.936415672302246,14.880496978759766
1712834885940935200,1.29293505859375,-5.393271446228027,-0.6971631050109863,9.55036449432373
1712834885960935200,1.31293505859375,-10.935229301452637,3.5375261306762695,3.023590564727783
1712834885980935200,1.33293505859375,-7.341044902801514,-0.024839401245117188,2.023371458053589
1712834886000935200,1.35293505859375,-3.650794506072998,1.3200292587280273,0.4429478645324707
1712834886020935200,1.37293505859375,-3.2025020122528076,1.0934333801269531,0.29128384590148926
1712834886040935200,1.39293505859375,-0.14199233055114746,1.0765228271484375,-2.434854745864868
1712834886060935200,1.41293505859375,2.3623716831207275,2.912769317626953,-0.12437748908996582
1712834886080935200,1.43293505859375,8.391376495361328,6.904813766479492,7.402670860290527
1712834886100935200,1.45293505859375,6.29348611831665,8.940786361694336,8.463570594787598
1712834886120935200,1.47293505859375,6.39234733581543,8.862131118774414,8.309028625488281
1712834886140935200,1.49293505859375,4.223198413848877,8.64781379699707,13.202251434326172
1712834886160935400,1.512935302734375,-1.9342761039733887,8.906033515930176,16.31624984741211
1712834886180935400,1.532935302734375,-2.2240796089172363,9.722965240478516,2.1251332759857178
1712834886200935400,1.552935302734375,-2.4373342990875244,9.70524787902832,1.8406577110290527
1712834886220935400,1.572935302734375,-2.46675968170166,3.9262561798095703,0.4373345375061035
1712834886240935400,1.592935302734375,-4.72856330871582,2.1028594970703125,1.8289601802825928
1712834886260935200,1.61293505859375,-5.58538818359375,1.422663688659668,1.0502625703811646
1712834886280935200,1.63293505859375,-4.323398590087891,1.4652986526489258,1.365126609802246
1712834886300935400,1.652935302734375,-4.867693901062012,1.1468639373779297,1.6524560451507568
1712834886320935400,1.672935302734375,-5.046765327453613,1.2031030654907227,1.5405458211898804
1712834886340935400,1.692935302734375,-3.8044118881225586,0.6421260833740234,-2.4401745796203613
1712834886360935400,1.712935302734375,-4.042074680328369,-1.2561821937561035,-5.68614387512207
1712834886380935400,1.732935302734375,-2.5210351943969727,-1.5414609909057617,-6.41103458404541
1712834886400935200,1.75293505859375,-2.5398526191711426,-1.8495368957519531,-3.519717216491699
1712834886420935200,1.77293505859375,-2.99511456489563,0.8292245864868164,-4.641408443450928
1712834886440935200,1.79293505859375,-2.9511990547180176,0.9645605087280273,-4.022726535797119
1712834886460935200,1.81293505859375,-0.5607335567474365,-4.494319438934326,-8.992517471313477
1712834886480935200,1.83293505859375,-3.3948516845703125,-1.7500085830688477,-9.925503730773926
1712834886500935200,1.85293505859375,-3.4078643321990967,-0.6084256172180176,-6.775139331817627
1712834886520935200,1.87293505859375,-3.3094992637634277,-0.3655085563659668,-6.3049092292785645
1712834886540935200,1.89293505859375,-2.5450618267059326,0.06511449813842773,-2.4469528198242188
1712834886560935200,1.91293505859375,-2.2895984649658203,-0.44870471954345703,-1.0667963027954102
1712834886580935200,1.93293505859375,-3.0672757625579834,-1.1779708862304688,-0.8075299263000488
1712834886600935200,1.95293505859375,-2.9858992099761963,-0.9343700408935547,-0.5040559768676758
1712834886620935200,1.97293505859375,-3.5466578006744385,0.11037063598632812,-0.22611284255981445
1712834886640935200,1.99293505859375,-4.087131500244141,0.4375743865966797,-0.09581899642944336
1712834886660935400,2.012935302734375,-5.162379741668701,1.0551567077636719,-0.03641319274902344
1712834886680935400,2.032935302734375,-5.310293197631836,1.0575246810913086,-0.10504722595214844
1712834886700935400,2.052935302734375,-4.999079704284668,-0.8100104331970215,3.5431625843048096
1712834886720935400,2.072935302734375,-6.259915351867676,-1.781928539276123,5.826759338378906
1712834886740935400,2.092935302734375,-5.646048545837402,-0.7950248718261719,9.573362350463867
1712834886760935200,2.11293505859375,-5.786711692810059,-1.161834716796875,8.992359161376953
1712834886780935200,2.13293505859375,-6.288848876953125,1.992537498474121,5.814565658569336
1712834886800935400,2.152935302734375,-7.9508514404296875,4.737859725952148,5.198527812957764
1712834886820935400,2.172935302734375,-6.755699157714844,-2.5799927711486816,1.7859244346618652
1712834886840935400,2.192935302734375,-7.934560298919678,-3.3455142974853516,-0.44333720207214355
1712834886860935400,2.212935302734375,-3.339081048965454,-1.0615272521972656,-0.6468997001647949
1712834886880935400,2.232935302734375,3.932255506515503,4.352978706359863,0.9894425868988037
1712834886900935200,2.25293505859375,8.72001838684082,6.035919189453125,2.6160454750061035
1712834886920935200,2.27293505859375,7.453085899353027,9.523140907287598,6.802765846252441
1712834886940935200,2.29293505859375,6.052944183349609,9.560734748840332,16.361299514770508
1712834886960935200,2.31293505859375,4.731114387512207,8.849335670471191,21.279918670654297
1712834886980935200,2.33293505859375,2.060293674468994,11.063069343566895,12.389545440673828
1712834887000935200,2.35293505859375,-1.4784578084945679,10.7548189163208,3.6450228691101074
1712834887020935200,2.37293505859375,-2.601968765258789,8.209424018859863,-0.09519410133361816
1712834887040935200,2.39293505859375,-4.123087406158447,5.86558723449707,-0.9174747467041016
1712834887060935200,2.41293505859375,-3.65303373336792,2.8456363677978516,-1.4642927646636963
1712834887080935200,2.43293505859375,-3.5530824661254883,1.8038215637207031,0.14773273468017578
1712834887100935200,2.45293505859375,-3.840562343597412,1.817978858947754,-0.16850507259368896
1712834887120935200,2.47293505859375,-0.3982415199279785,1.157297134399414,-0.80418860912323
1712834887140935200,2.49293505859375,-0.6750092506408691,1.2383317947387695,-0.919572114944458
1712834887160935400,2.512935302734375,-2.4595236778259277,0.10400009155273438,-2.374821186065674
1712834887180935400,2.532935302734375,-2.640320301055908,0.1873493194580078,-2.3383941650390625
1712834887200935400,2.552935302734375,0.16347146034240723,1.4429206848144531,-1.1936861276626587
1712834887220935400,2.572935302734375,-0.0026292800903320312,1.59698486328125,-0.8309917449951172
1712834887240935400,2.592935302734375,-4.127425670623779,-8.07560920715332,-10.245447158813477
1712834887260935200,2.61293505859375,-7.023366928100586,-4.074360370635986,-12.802560806274414
1712834887280935200,2.63293505859375,-3.9979066848754883,-1.5546526908874512,-7.233423233032227
1712834887300935400,2.652935302734375,-2.8392629623413086,-2.1415019035339355,-3.6469922065734863
1712834887320935400,2.672935302734375,-2.357820987701416,-0.06042623519897461,-1.242844581604004
1712834887340935400,2.692935302734375,-2.6321587562561035,-1.1042823791503906,-1.8773455619812012
1712834887360935400,2.712935302734375,-2.5748038291931152,-0.8758306503295898,-1.5394902229309082
1712834887380935400,2.732935302734375,-2.8986587524414062,-1.5157384872436523,-1.884559154510498
1712834887400935200,2.75293505859375,-2.766664981842041,-1.3069238662719727,-1.5766487121582031
1712834887420935200,2.77293505859375,-2.376893997192383,-0.948021411895752,-0.9423708915710449
1712834887440935200,2.79293505859375,-2.7678308486938477,-1.5196328163146973,-3.3805041313171387
1712834887460935200,2.81293505859375,-2.768252372741699,-1.327308177947998,-3.211772918701172
1712834887480935200,2.83293505859375,-4.468939781188965,0.7597827911376953,-3.8027729988098145
1712834887500935200,2.85293505859375,-4.7517547607421875,0.8024349212646484,-3.915407657623291
1712834887520935200,2.87293505859375,-6.3558244705200195,-0.1939988136291504,3.961585283279419
1712834887540935200,2.89293505859375,-9.298521041870117,0.630739688873291,10.175764083862305
1712834887560935200,2.91293505859375,-5.08201789855957,-0.4429035186767578,15.91418170928955
1712834887580935200,2.93293505859375,-2.619060754776001,-1.474935531616211,14.675043106079102
1712834887600935200,2.95293505859375,-8.359272956848145,3.390092372894287,9.283236503601074
1712834887620935200,2.97293505859375,-8.213175773620605,1.5815176963806152,3.4425134658813477
1712834887640935200,2.99293505859375,-5.828704833984375,0.15856361389160156,-1.0630536079406738
1712834887660935400,3.012935302734375,-3.7826294898986816,0.7184410095214844,-2.973681926727295
1712834887680935400,3.032935302734375,3.149961471557617,2.24871826171875,-0.1567521095275879
1712834887700935400,3.052935302734375,3.232740879058838,2.181875228881836,-0.23537158966064453
1712834887720935400,3.072935302734375,7.113964557647705,7.188198089599609,4.67411470413208
1712834887740935400,3.092935302734375,7.389242649078369,11.555468559265137,9.349723815917969
1712834887760935200,3.11293505859375,5.911029815673828,7.719473838806152,16.76785659790039
1712834887780935200,3.13293505859375,3.4998199939727783,7.290149688720703,18.31873321533203
1712834887800935400,3.152935302734375,2.0225706100463867,9.385753631591797,10.781377792358398
1712834887820935400,3.172935302734375,-2.6355817317962646,8.150956153869629,3.730556011199951
1712834887840935400,3.192935302734375,-3.9942445755004883,4.3370361328125,-1.6904869079589844
1712834887860935400,3.212935302734375,-2.978236198425293,2.4768924713134766,-2.678797483444214
1712834887880935400,3.232935302734375,-1.8089258670806885,0.8614349365234375,-2.4027597904205322
1712834887900935200,3.25293505859375,-1.6096656322479248,0.22628307342529297,-1.148268461227417
1712834887920935200,3.27293505859375,-1.702741026878357,1.0656204223632812,-0.37173962593078613
1712834887940935200,3.29293505859375,-0.9122743606567383,1.1984748840332031,-0.585059642791748
1712834887960935200,3.31293505859375,-0.8856265544891357,-0.3211965560913086,-2.1107418537139893
1712834887980935200,3.33293505859375,-1.5000591278076172,-1.1974177360534668,-3.386937379837036
1712834888000935200,3.35293505859375,-1.2395131587982178,-1.5759387016296387,-3.9945790767669678
1712834888020935200,3.37293505859375,-2.0288968086242676,-2.426203727722168,-4.400081634521484
1712834888040935200,3.39293505859375,-2.534242630004883,-3.4593753814697266,-3.523411273956299
1712834888060935200,3.41293505859375,-0.18071317672729492,-0.30698251724243164,-3.6270837783813477
1712834888080935200,3.43293505859375,1.0959031581878662,-1.79071044921875,-3.477079391479492
1712834888100935200,3.45293505859375,-0.14705252647399902,-2.8102340698242188,-3.963122844696045
1712834888120935200,3.47293505859375,-1.2456297874450684,-1.638329029083252,-5.7565598487854
1712834888140935200,3.49293505859375,-1.5736433267593384,-1.6494550704956055,-5.9342360496521
1712834888160935400,3.512935302734375,-1.530226230621338,-1.6163973808288574,-4.584005832672119
1712834888180935400,3.532935302734375,-1.6065900325775146,-1.048940658569336,-2.826669216156006
1712834888200935400,3.552935302734375,-1.695794939994812,-1.278371810913086,-1.864088535308838
1712834888220935400,3.572935302734375,-3.2113609313964844,-1.9343838691711426,-1.9497685432434082
1712834888240935400,3.592935302734375,-2.659411907196045,-1.0917620658874512,-1.544107437133789
1712834888260935200,3.61293505859375,-3.8771352767944336,-0.7496728897094727,-0.8813676834106445
1712834888280935200,3.63293505859375,-3.95814847946167,-0.28421878814697266,-0.2769937515258789
1712834888300935400,3.652935302734375,-3.2444212436676025,0.38502931594848633,0.28565073013305664
1712834888320935400,3.672935302734375,-2.308692455291748,0.7346014976501465,0.5147218704223633
1712834888340935400,3.692935302734375,-2.4083118438720703,1.1973040103912354,0.3702249526977539
1712834888360935400,3.712935302734375,-2.195546865463257,1.301847219467163,-0.12426280975341797
1712834888380935400,3.732935302734375,-2.4296345710754395,1.3058674335479736,0.29137611389160156
1712834888400935200,3.75293505859375,-2.6445565223693848,1.7130367755889893,0.5060186386108398
1712834888420935200,3.77293505859375,-2.45078182220459,2.022970676422119,0.4854755401611328
1712834888440935200,3.79293505859375,-4.8599419593811035,4.1009721755981445,1.1533522605895996
1712834888460935200,3.81293505859375,-6.6114277839660645,4.964406967163086,5.771501064300537
1712834888480935200,3.83293505859375,-4.6747145652771,2.866198778152466,12.340911865234375
1712834888500935200,3.85293505859375,-2.522437810897827,0.7338905334472656,13.632731437683105
1712834888520935200,3.87293505859375,-4.3284759521484375,0.6883153915405273,8.2637357711792
1712834888540935200,3.89293505859375,-8.430299758911133,3.600919246673584,3.664576292037964
1712834888560935200,3.91293505859375,-7.741377830505371,-0.0310516357421875,2.1122756004333496
1712834888580935200,3.93293505859375,-7.4171295166015625,-0.5762758255004883,1.8298768997192383
1712834888600935200,3.95293505859375,-1.5664000511169434,-0.5127253532409668,1.3301129341125488
1712834888620935200,3.97293505859375,-1.472372055053711,-0.8837742805480957,0.9228911399841309
1712834888640935200,3.99293505859375,5.646702289581299,9.074821472167969,7.0655293464660645
1712834888660935400,4.012935302734375,7.881710529327393,10.237727165222168,10.1294584274292
1712834888680935400,4.032935302734375,8.213991165161133,9.95488166809082,9.926011085510254
1712834888700935400,4.052935302734375,2.6108388900756836,11.486186981201172,17.355981826782227
1712834888720935400,4.072935302734375,0.0399012565612793,12.209813117980957,11.338617324829102
1712834888740935400,4.092935302734375,0.4437136650085449,12.024026870727539,11.19641399383545
1712834888760935200,4.11293505859375,-1.1906635761260986,10.18477725982666,2.540066719055176
1712834888780935200,4.13293505859375,-0.6794497966766357,2.8575563430786133,-4.581358909606934
1712834888800935400,4.152935302734375,-0.6820501089096069,1.12469482421875,-3.538750648498535
1712834888820935400,4.172935302734375,-0.841222882270813,1.3250951766967773,-1.496711254119873
1712834888840935400,4.192935302734375,-0.6367583274841309,1.6250982284545898,0.8893132209777832
1712834888860935400,4.212935302734375,0.6306271553039551,1.5847053527832031,2.873075485229492
1712834888880935400,4.232935302734375,-0.31323742866516113,1.8624544143676758,3.2270710468292236
1712834888900935200,4.25293505859375,-1.6211568117141724,1.9969701766967773,0.6966290473937988
1712834888920935200,4.27293505859375,-2.7100913524627686,0.8124542236328125,-1.614353895187378
1712834888940935200,4.29293505859375,-2.6359410285949707,-1.055473804473877,-3.251473903656006
1712834888960935200,4.31293505859375,-3.109138250350952,-0.8386087417602539,1.8657734394073486
1712834888980935200,4.33293505859375,-3.0950608253479004,-0.8089504241943359,1.9551644325256348
1712834889000935200,4.35293505859375,1.4406335353851318,-3.720372200012207,-3.4992127418518066
1712834889020935200,4.37293505859375,-3.2618300914764404,-5.098940372467041,-6.149022102355957
1712834889040935200,4.39293505859375,-4.660853385925293,-0.08768987655639648,-6.996149063110352
1712834889060935200,4.41293505859375,-2.9649577140808105,-0.8470973968505859,-3.9568114280700684
1712834889080935200,4.43293505859375,-2.907337188720703,-0.636042594909668,-3.638363838195801
1712834889100935200,4.45293505859375,-1.6478824615478516,-1.960886001586914,-1.1376447677612305
1712834889120935200,4.47293505859375,-1.7372863292694092,-1.2670822143554688,-0.24773311614990234
1712834889140935200,4.49293505859375,-2.620802640914917,-2.4699621200561523,-2.2966651916503906
1712834889160935400,4.512935302734375,-2.4690258502960205,-2.321444034576416,-2.081843852996826
1712834889180935400,4.532935302734375,-2.4208996295928955,-1.9928832054138184,-0.6065621376037598
1712834889200935400,4.552935302734375,-2.285423517227173,-1.1158394813537598,-3.0431065559387207
1712834889220935400,4.572935302734375,-3.287041664123535,-0.19774580001831055,-4.049166679382324
1712834889240935400,4.592935302734375,-5.942415714263916,-0.10341644287109375,0.13756036758422852
1712834889260935200,4.61293505859375,-5.296867370605469,0.04123067855834961,7.286002159118652
1712834889280935200,4.63293505859375,-5.0667829513549805,-1.8445510864257812,10.544767379760742
1712834889300935400,4.652935302734375,-6.166119575500488,-0.6026802062988281,12.736533164978027
1712834889320935400,4.672935302734375,-5.515678405761719,4.087429523468018,10.870783805847168
1712834889340935400,4.692935302734375,-4.673374176025391,-0.1001582145690918,1.3388900756835938
1712834889360935400,4.712935302734375,-3.461540699005127,-2.2397141456604004,-3.2847366333007812
1712834889380935400,4.732935302734375,-0.7740802764892578,-0.5928573608398438,-4.423951625823975
1712834889400935200,4.75293505859375,3.6781182289123535,1.8641901016235352,-1.66599702835083
1712834889420935200,4.77293505859375,7.149901390075684,3.5698509216308594,4.5081915855407715
1712834889440935200,4.79293505859375,4.895824432373047,4.505248069763184,8.739952087402344
1712834889460935200,4.81293505859375,3.6111342906951904,9.383731842041016,10.710052490234375
1712834889480935200,4.83293505859375,6.1916303634643555,9.542293548583984,15.012672424316406
1712834889500935200,4.85293505859375,5.052377700805664,7.364232063293457,19.198444366455078
1712834889520935200,4.87293505859375,3.2630808353424072,9.675755500793457,11.986191749572754
1712834889540935200,4.89293505859375,-0.06195950508117676,8.348246574401855,4.703808307647705
1712834889560935200,4.91293505859375,-0.023574352264404297,8.2322416305542,4.4288434982299805
1712834889580935200,4.93293505859375,-1.8571720123291016,2.8277273178100586,-4.280251502990723
1712834889600935200,4.95293505859375,-2.0660653114318848,2.799114227294922,-4.51564359664917
1712834889620935200,4.97293505859375,-2.82712984085083,0.6969633102416992,-1.0202574729919434
1712834889640935200,4.99293505859375,-0.16172289848327637,0.30984020233154297,0.31734561920166016
1712834889660935400,5.012935302734375,-0.014240026473999023,0.36878108978271484,2.7160606384277344
1712834889680935400,5.032935302734375,0.1816396713256836,1.8311853408813477,3.183403491973877
1712834889700935400,5.052935302734375,-0.3115651607513428,2.5987024307250977,0.794836163520813
1712834889720935400,5.072935302734375,-2.059230089187622,2.522059440612793,-1.4481523036956787
1712834889740935400,5.092935302734375,0.27839040756225586,2.262934684753418,-3.671912431716919
1712834889760935200,5.11293505859375,1.8800265789031982,-1.299807071685791,-2.3501317501068115
1712834889780935200,5.13293505859375,-0.6298065185546875,-2.38704252243042,-2.499549150466919
1712834889800935400,5.152935302734375,-1.2868049144744873,-1.518111228942871,-6.932422637939453
1712834889820935400,5.172935302734375,-1.6342319250106812,0.8770332336425781,-8.011982917785645
1712834889840935400,5.192935302734375,-3.050309896469116,-0.5444245338439941,-4.060111999511719
1712834889860935400,5.212935302734375,-4.018225193023682,-1.1956357955932617,2.869748115539551
1712834889880935400,5.232935302734375,-2.4723072052001953,-2.7411985397338867,12.332788467407227
1712834889900935200,5.25293505859375,-1.1548538208007812,-7.401644229888916,11.849485397338867
1712834889920935200,5.27293505859375,-1.3065619468688965,-6.532954216003418,5.507351875305176
1712834889940935200,5.29293505859375,-0.4647095203399658,-6.660799980163574,-2.425783634185791
1712834889960935200,5.31293505859375,0.7151720523834229,-4.899646759033203,-4.467421531677246
1712834889980935200,5.33293505859375,-3.0300655364990234,-7.273443222045898,-1.8048334121704102
1712834890000935200,5.35293505859375,-0.2256944179534912,-1.3556008338928223,-0.7789367437362671
1712834890020935200,5.37293505859375,-0.7259118556976318,2.313404083251953,-6.803036212921143
1712834890040935200,5.39293505859375,-6.856627941131592,0.2181558609008789,-13.864618301391602
1712834890060935200,5.41293505859375,-7.3870158195495605,-4.379144668579102,-6.380285739898682
1712834890080935200,5.43293505859375,-4.070698261260986,-4.2898969650268555,-2.548689126968384
1712834890100935200,5.45293505859375,3.9229652881622314,0.3432292938232422,-2.903195381164551
1712834890120935200,5.47293505859375,4.853222846984863,5.572393417358398,-1.9829473495483398
1712834890140935200,5.49293505859375,0.7748184204101562,12.134140968322754,10.557178497314453
1712834890160935400,5.512935302734375,5.289687633514404,9.418581008911133,28.632266998291016
1712834890180935400,5.532935302734375,12.361897468566895,3.7067012786865234,20.409040451049805
1712834890200935400,5.552935302734375,6.908812522888184,2.391254425048828,9.372966766357422
1712834890220935400,5.572935302734375,-1.0311236381530762,4.0704851150512695,5.385543346405029
1712834890240935400,5.592935302734375,-4.080931663513184,3.9778242111206055,0.18311166763305664
1712834890260935200,5.61293505859375,-3.506497383117676,1.5664443969726562,-4.7815351486206055
1712834890280935200,5.63293505859375,-1.382232666015625,1.4127092361450195,-4.8738508224487305
1712834890300935400,5.652935302734375,-0.4711418151855469,0.160858154296875,-5.65899658203125
1712834890320935400,5.672935302734375,-0.6436431407928467,0.1920337677001953,-5.726276397705078
1712834890340935400,5.692935302734375,0.15645432472229004,-0.47470569610595703,-2.5659050941467285
1712834890360935400,5.712935302734375,3.092677116394043,2.0987443923950195,3.117152690887451
1712834890380935400,5.732935302734375,1.4857966899871826,2.9381980895996094,1.2348922491073608
1712834890400935200,5.75293505859375,1.2586603164672852,3.023723602294922,1.286463737487793
1712834890420935200,5.77293505859375,0.952822208404541,1.3727121353149414,-2.13989520072937
1712834890440935200,5.79293505859375,5.770316123962402,-0.398284912109375,-1.808667540550232
1712834890460935200,5.81293505859375,4.567010402679443,-4.776556968688965,-0.9871440529823303
1712834890480935200,5.83293505859375,4.260729789733887,-4.611255645751953,-0.7927321195602417
1712834890500935200,5.85293505859375,-5.567041873931885,-2.179567813873291,-11.479143142700195
1712834890520935200,5.87293505859375,-3.665471315383911,-3.1078872680664062,-7.032405853271484
1712834890540935200,5.89293505859375,-3.6954877376556396,-3.043081283569336,-6.786063194274902
1712834890560935200,5.91293505859375,-2.9286441802978516,-3.150023937225342,-3.443610906600952
1712834890580935200,5.93293505859375,-2.5259361267089844,-1.421130657196045,-3.0952155590057373
1712834890600935200,5.95293505859375,-2.6630754470825195,-1.0865535736083984,-4.18212890625
1712834890620935200,5.97293505859375,-2.3385696411132812,-1.7648110389709473,-4.344402313232422
1712834890640935200,5.99293505859375,-1.3576910495758057,0.4371681213378906,-4.368298530578613
1712834890660935400,6.012935302734375,-1.7113382816314697,-0.4364204406738281,-4.565603733062744
1712834890680935400,6.032935302734375,-1.8747045993804932,-0.22684717178344727,-3.6449599266052246
1712834890700935400,6.052935302734375,-1.596386432647705,0.0030050277709960938,-3.1878132820129395
1712834890720935400,6.072935302734375,-3.4354031085968018,1.9648737907409668,-4.293524742126465
1712834890740935400,6.092935302734375,-3.335228204727173,2.211062431335449,-3.9823732376098633
1712834890760935200,6.11293505859375,-3.9289422035217285,1.2323737144470215,0.15741539001464844
1712834890780935200,6.13293505859375,-4.354257106781006,-0.37818479537963867,1.3546009063720703
1712834890800935400,6.152935302734375,-6.444336414337158,-0.5821261405944824,3.657133102416992
1712834890820935400,6.172935302734375,-7.638158798217773,-0.002777576446533203,6.612792015075684
1712834890840935400,6.192935302734375,-7.879277229309082,-0.21530914306640625,6.252022743225098
1712834890860935400,6.212935302734375,-6.570036888122559,2.3801984786987305,10.195686340332031
1712834890880935400,6.232935302734375,-6.658173561096191,2.1281356811523438,9.804206848144531
1712834890900935200,6.25293505859375,-4.761178970336914,0.12438821792602539,7.597271919250488
1712834890920935200,6.27293505859375,-4.542202472686768,-0.12862730026245117,7.3621416091918945
1712834890940935200,6.29293505859375,-4.976241588592529,0.06223630905151367,3.2580389976501465
1712834890960935200,6.31293505859375,1.735706090927124,3.573282241821289,2.951310396194458
1712834890980935200,6.33293505859375,5.9058990478515625,5.074766159057617,4.710745334625244
1712834891000935200,6.35293505859375,6.045888900756836,5.022861480712891,4.701722145080566
1712834891020935200,6.37293505859375,6.468064785003662,9.989399909973145,8.505199432373047
1712834891040935200,6.39293505859375,6.868027687072754,9.878482818603516,12.703990936279297
1712834891060935200,6.41293505859375,5.343254089355469,5.8541412353515625,15.818599700927734
1712834891080935200,6.43293505859375,1.383544683456421,8.273468017578125,11.537505149841309
1712834891100935200,6.45293505859375,1.6262129545211792,8.145539283752441,11.349853515625
1712834891120935200,6.47293505859375,-2.516660213470459,5.036698341369629,-3.5814695358276367
1712834891140935200,6.49293505859375,-2.6170058250427246,4.979305267333984,-3.763702869415283
1712834891160935400,6.512935302734375,-0.3837246894836426,0.7053060531616211,-0.6125526428222656
1712834891180935400,6.532935302734375,-0.6061052083969116,0.6789512634277344,-0.8100490570068359
1712834891200935400,6.552935302734375,0.7716231346130371,0.4888439178466797,3.174039840698242
1712834891220935400,6.572935302734375,-0.6525394916534424,1.3456239700317383,2.3435707092285156
1712834891240935400,6.592935302734375,-0.8085372447967529,1.3728561401367188,2.2979166507720947
1712834891260935200,6.61293505859375,-1.6730940341949463,1.0693941116333008,-0.9296965599060059
1712834891280935200,6.63293505859375,-1.785478949546814,-0.0051097869873046875,-1.880042314529419
1712834891300935400,6.652935302734375,-0.3321495056152344,-0.5025148391723633,-1.9360384941101074
1712834891320935400,6.672935302734375,-0.39269423484802246,-0.45473670959472656,-1.848928451538086
1712834891340935400,6.692935302734375,-0.4728407859802246,1.0319194793701172,-1.582050085067749
1712834891360935400,6.712935302734375,-2.0201475620269775,-0.6769733428955078,-1.3250269889831543
1712834891380935400,6.732935302734375,1.1151537895202637,-2.6195173263549805,-4.453062534332275
1712834891400935200,6.75293505859375,-1.9033416509628296,-3.4841713905334473,-6.3673176765441895
1712834891420935200,6.77293505859375,-3.493596076965332,-1.4768400192260742,-5.676936149597168
1712834891440935200,6.79293505859375,-3.4189610481262207,-1.285947322845459,-5.320443630218506
1712834891460935200,6.81293505859375,-1.817908763885498,-1.9115681648254395,-0.9078340530395508
1712834891480935200,6.83293505859375,-2.151705741882324,-1.1093811988830566,-0.41660499572753906
1712834891500935200,6.85293505859375,-1.506996512413025,-1.0225791931152344,-0.6704726219177246
1712834891520935200,6.87293505859375,-1.8749288320541382,-1.7424488067626953,-0.6511025428771973
1712834891540935200,6.89293505859375,-1.7005985975265503,-1.524916648864746,-0.3625001907348633
1712834891560935200,6.91293505859375,-1.4519109725952148,-1.6700630187988281,-1.47700834274292
1712834891580935200,6.93293505859375,-1.3444833755493164,-1.4765839576721191,-1.2684845924377441
1712834891600935200,6.95293505859375,-1.7726465463638306,-0.9838337898254395,-2.2009024620056152
1712834891620935200,6.97293505859375,-1.6459970474243164,-0.9707918167114258,-2.886847972869873
1712834891640935200,6.99293505859375,-1.9851629734039307,-0.5472097396850586,0.6459312438964844
1712834891660935400,7.012935302734375,-3.999177932739258,0.39694643020629883,2.2661428451538086
1712834891680935400,7.032935302734375,-5.635387420654297,1.128150463104248,6.0815863609313965
1712834891700935400,7.052935302734375,-3.059889316558838,0.48372316360473633,9.614629745483398
1712834891720935400,7.072935302734375,-0.5123310089111328,-0.9684405326843262,7.390615940093994
1712834891740935400,7.092935302734375,-3.367306709289551,1.230710506439209,6.163106441497803
1712834891760935200,7.11293505859375,-6.689384460449219,3.8255062103271484,5.812075138092041
1712834891780935200,7.13293505859375,-5.145730972290039,-0.8853187561035156,3.2883799076080322
1712834891800935400,7.152935302734375,-6.3258514404296875,-2.893451690673828,1.7497656345367432
1712834891820935400,7.172935302734375,-5.061357498168945,-0.7292485237121582,1.8349008560180664
1712834891840935400,7.192935302734375,-4.8307929039001465,-0.8151512145996094,1.8340654373168945
1712834891860935400,7.212935302734375,7.948793888092041,6.994132995605469,6.4418416023254395
1712834891880935400,7.232935302734375,7.331258296966553,8.858583450317383,6.994024276733398
1712834891900935200,7.25293505859375,6.467233180999756,9.959813117980957,8.577406883239746
1712834891920935200,7.27293505859375,5.2272748947143555,7.261256217956543,12.442412376403809
1712834891940935200,7.29293505859375,3.7838382720947266,6.507431983947754,14.262167930603027
1712834891960935200,7.31293505859375,0.9516223669052124,8.509404182434082,7.910531997680664
1712834891980935200,7.33293505859375,1.1745020151138306,8.364439010620117,7.7009196281433105
1712834892000935200,7.35293505859375,-2.256908416748047,4.5878400802612305,-1.418466567993164
1712834892020935200,7.37293505859375,-2.1805505752563477,2.914494514465332,-1.7782611846923828
1712834892040935200,7.39293505859375,-1.9554654359817505,1.7286310195922852,0.2906982898712158
1712834892060935200,7.41293505859375,-1.5968416929244995,1.5017385482788086,1.6255683898925781
1712834892080935200,7.43293505859375,-0.6260983943939209,1.3240137100219727,2.8436386585235596
1712834892100935200,7.45293505859375,-1.2195512056350708,1.2765541076660156,2.939960479736328
1712834892120935200,7.47293505859375,-1.3564144372940063,1.2474937438964844,2.67956280708313
1712834892140935200,7.49293505859375,-1.4151772260665894,1.123549461364746,1.1124403476715088
1712834892160935400,7.512935302734375,-2.257297992706299,0.2350025177001953,-1.6597211360931396
1712834892180935400,7.532935302734375,-2.362740993499756,0.26111793518066406,-1.6791250705718994
1712834892200935400,7.552935302734375,-0.7189140319824219,-0.7099599838256836,-3.2105813026428223
1712834892220935400,7.572935302734375,-2.2261462211608887,-3.4459919929504395,-5.577423095703125
1712834892240935400,7.592935302734375,-2.1939735412597656,-3.38557767868042,-5.293942451477051
1712834892260935200,7.61293505859375,0.9581930637359619,-2.3404974937438965,-4.183695316314697
1712834892280935200,7.63293505859375,-0.11322402954101562,-2.9022393226623535,-6.097980976104736
1712834892300935400,7.652935302734375,-1.0046025514602661,-2.4090614318847656,-6.144997596740723
1712834892320935400,7.672935302734375,-1.531862735748291,-0.1497325897216797,-3.3452706336975098
1712834892340935400,7.692935302734375,-0.09022641181945801,-1.0246024131774902,-2.6849637031555176
1712834892360935400,7.712935302734375,1.0588302612304688,-0.4613924026489258,-1.2011966705322266
1712834892380935400,7.732935302734375,0.43400025367736816,-0.08756589889526367,-1.0694561004638672
1712834892400935200,7.75293505859375,-0.1622375249862671,-0.627225399017334,-1.7581729888916016
1712834892420935200,7.77293505859375,-0.05005002021789551,-0.3582344055175781,-1.4147701263427734
1712834892440935200,7.79293505859375,-0.6651493310928345,-0.5314555168151855,-0.2828383445739746
1712834892460935200,7.81293505859375,-1.144263505935669,-0.5566935539245605,-0.8536500930786133
1712834892480935200,7.83293505859375,-1.7241090536117554,-0.26712942123413086,-1.2386326789855957
1712834892500935200,7.85293505859375,-2.165350914001465,0.19205522537231445,-0.36911869049072266
1712834892520935200,7.87293505859375,-2.0452518463134766,0.20908689498901367,0.5296273231506348
1712834892540935200,7.89293505859375,-3.449323892593384,-0.4344496726989746,2.6869430541992188
1712834892560935200,7.91293505859375,-3.6922407150268555,-0.7020411491394043,5.6455230712890625
1712834892580935200,7.93293505859375,-4.078995704650879,-0.9415488243103027,5.206487655639648
1712834892600935200,7.95293505859375,-4.480890274047852,-1.222334384918213,7.090567588806152
1712834892620935200,7.97293505859375,-4.752314567565918,2.884150981903076,7.2948408126831055
1712834892640935200,7.99293505859375,-4.769250869750977,2.6229324340820312,6.903929710388184
1712834892660935400,8.012935302734375,-5.5407233238220215,1.592550277709961,4.372130870819092
1712834892680935400,8.032935302734375,-3.612250328063965,-0.1608891487121582,3.427003860473633
1712834892700935400,8.052935302734374,-0.7955362796783447,2.0894432067871094,3.65320086479187
1712834892720935400,8.072935302734376,2.366115093231201,4.7497358322143555,4.873838901519775
1712834892740935400,8.092935302734375,2.544532537460327,4.6873626708984375,4.888446807861328
1712834892760935200,8.11293505859375,6.150552749633789,5.76108455657959,6.599308967590332
1712834892780935200,8.13293505859375,9.160806655883789,7.082446098327637,12.1495361328125
1712834892800935400,8.152935302734376,5.053747177124023,4.316902160644531,14.729301452636719
1712834892820935400,8.172935302734375,-0.10158324241638184,6.431597709655762,8.956209182739258
1712834892840935400,8.192935302734375,-1.182154655456543,7.61320686340332,1.4546704292297363
1712834892860935400,8.212935302734374,-1.0360956192016602,7.49379825592041,1.2645840644836426
1712834892880935400,8.232935302734376,-1.0588710308074951,3.2153682708740234,-0.7191996574401855
1712834892900935200,8.25293505859375,-0.6086944341659546,1.3352880477905273,0.08044910430908203
1712834892920935200,8.27293505859375,-0.5308206081390381,0.7082834243774414,1.5993512868881226
1712834892940935200,8.29293505859375,-0.0397191047668457,0.8139057159423828,2.5937094688415527
1712834892960935200,8.31293505859375,0.8874719142913818,1.2931909561157227,3.2602334022521973
1712834892980935200,8.33293505859375,0.7592837810516357,1.2883281707763672,3.1429784297943115
1712834893000935200,8.35293505859375,-1.1109808683395386,1.8858528137207031,0.9529435634613037
1712834893020935200,8.37293505859375,-1.1621562242507935,1.9128694534301758,0.9930918216705322
1712834893040935200,8.39293505859375,-0.7737165689468384,-0.07361316680908203,-1.9971787929534912
1712834893060935200,8.41293505859375,-2.3683059215545654,0.7796897888183594,-0.3941762447357178
1712834893080935200,8.43293505859375,0.16789817810058594,-0.7632741928100586,-1.6576271057128906
1712834893100935200,8.45293505859375,2.8830080032348633,-0.9220829010009766,-0.8235495090484619
1712834893120935200,8.47293505859375,3.224017858505249,-1.7208232879638672,-0.9931271076202393
1712834893140935200,8.49293505859375,0.02334904670715332,-2.4709553718566895,-4.658939361572266
1712834893160935400,8.512935302734375,-2.1323740482330322,-2.6035618782043457,-7.393665313720703
1712834893180935400,8.532935302734375,-1.9018595218658447,-2.3311901092529297,-4.98309850692749
1712834893200935400,8.552935302734374,-1.7348525524139404,-1.8165435791015625,-2.0145273208618164
1712834893220935400,8.572935302734376,-1.089920997619629,-0.37581443786621094,-0.21865129470825195
1712834893240935400,8.592935302734375,-1.246293306350708,-1.6941442489624023,-1.5638093948364258
1712834893260935200,8.61293505859375,-1.1037333011627197,-1.4623074531555176,-1.1533350944519043
1712834893280935200,8.63293505859375,-0.9919664859771729,-1.6620159149169922,-1.9335589408874512
1712834893300935400,8.652935302734376,-2.4146203994750977,-2.398331642150879,-3.306507110595703
1712834893320935400,8.672935302734375,-2.2079243659973145,-2.211696147918701,-3.03507661819458
1712834893340935400,8.692935302734375,-2.081815242767334,-2.042943000793457,-3.0572261810302734
1712834893360935400,8.712935302734374,-2.749176502227783,-1.3517799377441406,-2.4734396934509277
1712834893380935400,8.732935302734376,-0.8856525421142578,-0.6993570327758789,-2.2347288131713867
1712834893400935200,8.75293505859375,-3.2537729740142822,1.4322776794433594,-2.8283820152282715
1712834893420935200,8.77293505859375,-8.25735092163086,3.4432296752929688,-0.31577062606811523
1712834893440935200,8.79293505859375,-5.335881233215332,1.7343015670776367,9.53310775756836
1712834893460935200,8.81293505859375,-2.0978543758392334,-1.1054167747497559,11.970291137695312
1712834893480935200,8.83293505859375,-3.7964470386505127,0.5426740646362305,12.166036605834961
1712834893500935200,8.85293505859375,-7.502368927001953,2.013176918029785,7.9009599685668945
1712834893520935200,8.87293505859375,-5.936544418334961,-1.3739838600158691,4.71899938583374
1712834893540935200,8.89293505859375,-5.011734962463379,-1.9267816543579102,2.977452278137207
1712834893560935200,8.91293505859375,-1.6911448240280151,0.3210911750793457,1.9479589462280273
1712834893580935200,8.93293505859375,2.291102170944214,3.1804399490356445,2.7784271240234375
1712834893600935200,8.95293505859375,2.3568849563598633,3.0970096588134766,2.686943531036377
1712834893620935200,8.97293505859375,5.226755142211914,8.222006797790527,5.408730983734131
1712834893640935200,8.99293505859375,5.4159674644470215,8.158181190490723,5.405372619628906
1712834893660935400,9.012935302734375,4.631427764892578,7.009970664978027,11.775165557861328
1712834893680935400,9.032935302734375,2.4257113933563232,7.401400566101074,13.13947868347168
1712834893700935400,9.052935302734374,1.4933427572250366,8.130705833435059,8.822101593017578
1712834893720935400,9.072935302734376,1.7304527759552002,7.959856986999512,8.581442832946777
1712834893740935400,9.092935302734375,-0.8275072574615479,4.296761512756348,2.5874991416931152
1712834893760935200,9.11293505859375,-0.883683443069458,4.172869682312012,2.2952351570129395
1712834893780935200,9.13293505859375,-1.347455382347107,2.943526268005371,0.6234335899353027
1712834893800935400,9.152935302734376,-1.9210402965545654,2.4054269790649414,1.5108693838119507
1712834893820935400,9.172935302734375,-1.3961364030838013,1.6181955337524414,2.275930404663086
1712834893840935400,9.192935302734375,-1.0886633396148682,1.9066839218139648,2.103522777557373
1712834893860935400,9.212935302734374,-0.450689435005188,1.3679914474487305,0.5983767509460449
1712834893880935400,9.232935302734376,-0.5082077980041504,0.38387393951416016,-0.8621940612792969
1712834893900935200,9.25293505859375,-0.619208812713623,0.38616466522216797,-0.9623575210571289
1712834893920935200,9.27293505859375,-1.9186666011810303,1.378997802734375,0.7303977012634277
1712834893940935200,9.29293505859375,-1.0536866188049316,-1.0240325927734375,-1.3081073760986328
1712834893960935200,9.31293505859375,1.4814174175262451,-1.3191719055175781,-0.8092424869537354
1712834893980935200,9.33293505859375,1.369408130645752,-0.8557825088500977,-0.6781554222106934
1712834894000935200,9.35293505859375,-0.06967544555664062,-2.413661003112793,-4.132712364196777
1712834894020935200,9.37293505859375,-1.6299060583114624,-3.0543150901794434,-6.786494731903076
1712834894040935200,9.39293505859375,-1.6177133321762085,-2.9147391319274902,-6.434732437133789
1712834894060935200,9.41293505859375,-2.1870033740997314,-2.894848346710205,-3.682638645172119
1712834894080935200,9.43293505859375,-2.1277103424072266,-2.7615199089050293,-3.3734445571899414
1712834894100935200,9.45293505859375,-1.4994127750396729,-1.0675373077392578,-1.3299479484558105
1712834894120935200,9.47293505859375,-0.8385108709335327,-1.7659249305725098,-1.2199549674987793
1712834894140935200,9.49293505859375,-1.1820454597473145,-2.0708584785461426,-1.4213738441467285
1712834894160935400,9.512935302734375,-0.9458324909210205,-2.363044261932373,-2.634883403778076
1712834894180935400,9.532935302734375,-0.8236315250396729,-1.7449898719787598,-3.143551826477051
1712834894200935400,9.552935302734374,-1.3631528615951538,-1.1396474838256836,-4.237351417541504
1712834894220935400,9.572935302734376,-1.2828675508499146,-0.9775614738464355,-4.040271759033203
1712834894240935400,9.592935302734375,-0.6889668703079224,0.2595367431640625,-1.6192936897277832
1712834894260935200,9.61293505859375,-1.0052238702774048,0.3661618232727051,-1.6013526916503906
1712834894280935200,9.63293505859375,-3.0648159980773926,-0.24332046508789062,0.13292503356933594
1712834894300935400,9.652935302734376,-7.10671329498291,1.24611234664917,6.067774295806885
1712834894320935400,9.672935302734375,-3.2366273403167725,1.1236152648925781,10.857574462890625
1712834894340935400,9.692935302734375,-2.5808768272399902,0.6487112045288086,8.761300086975098
1712834894360935400,9.712935302734374,-2.650056838989258,0.4859318733215332,8.494115829467773
1712834894380935400,9.732935302734376,-6.388324737548828,-1.3437190055847168,2.909752607345581
1712834894400935200,9.75293505859375,-5.956849098205566,-0.34302806854248047,4.212111949920654
1712834894420935200,9.77293505859375,-2.425495147705078,0.7080740928649902,4.878414630889893
1712834894440935200,9.79293505859375,0.7120668888092041,3.138035297393799,5.851197719573975
1712834894460935200,9.81293505859375,2.5135915279388428,4.923044681549072,6.234972953796387
1712834894480935200,9.83293505859375,4.7212018966674805,6.481213569641113,6.823047161102295
1712834894500935200,9.85293505859375,6.445095062255859,7.797759056091309,9.496116638183594
1712834894520935200,9.87293505859375,5.0056610107421875,5.647431373596191,13.830703735351562
1712834894540935200,9.89293505859375,0.4650542736053467,7.547104835510254,14.037956237792969
1712834894560935200,9.91293505859375,0.09018397331237793,9.012738227844238,6.945383071899414
1712834894580935200,9.93293505859375,0.35403382778167725,8.846549987792969,6.733741760253906
1712834894600935200,9.95293505859375,0.9589678049087524,5.790135383605957,2.4558889865875244
1712834894620935200,9.97293505859375,0.2717784643173218,4.7970428466796875,2.4523682594299316
1712834894640935200,9.99293505859375,-1.4166364669799805,2.824796676635742,2.0146355628967285
1712834894660935400,10.012935302734375,-1.5235614776611328,2.083963394165039,2.5372705459594727
1712834894680935400,10.032935302734375,-1.398228406906128,1.8483104705810547,2.224806308746338
1712834894700935400,10.052935302734374,-0.07808637619018555,2.0165958404541016,1.2195172309875488
1712834894720935400,10.072935302734376,0.325115442276001,1.1036701202392578,0.6078834533691406
1712834894740935400,10.092935302734375,-0.7894676923751831,0.823603630065918,0.2032792568206787
1712834894760935200,10.11293505859375,-0.7592189311981201,0.83599853515625,-1.5220632553100586
1712834894780935200,10.13293505859375,-1.3085277080535889,-0.5677089691162109,-4.486867904663086
1712834894800935400,10.152935302734376,0.13678550720214844,-1.8535757064819336,-5.543994903564453
1712834894820935400,10.172935302734375,-1.2083444595336914,-1.1668004989624023,-2.410212993621826
1712834894840935400,10.192935302734375,-0.2230820655822754,-1.6077980995178223,-1.2165489196777344
1712834894860935400,10.212935302734374,1.4997072219848633,-1.3915925025939941,-1.8830368518829346
1712834894880935400,10.232935302734376,0.778770923614502,-2.824099063873291,-3.333604097366333
1712834894900935200,10.25293505859375,-2.103320837020874,-2.854050636291504,-5.4567952156066895
1712834894920935200,10.27293505859375,-2.341585874557495,-1.5778183937072754,-4.548178195953369
1712834894940935200,10.29293505859375,-1.3575239181518555,-1.974134922027588,-2.4357662200927734
1712834894960935200,10.31293505859375,-1.120009422302246,-2.249767303466797,-1.7694969177246094
1712834894980935200,10.33293505859375,-1.0855660438537598,-1.5995473861694336,-0.9442405700683594
1712834895000935200,10.35293505859375,-0.9449003338813782,-1.3732471466064453,-0.6193203926086426
1712834895020935200,10.37293505859375,-0.6573244333267212,-1.4950556755065918,-0.6862297058105469
1712834895040935200,10.39293505859375,-0.5446646213531494,-1.3034605979919434,-0.4536471366882324
1712834895060935200,10.41293505859375,-0.6977024674415588,-0.4674715995788574,-2.774998188018799
1712834895080935200,10.43293505859375,-0.3672260046005249,-1.4289307594299316,-1.08552885055542
1712834895100935200,10.45293505859375,-0.21592175960540771,-1.4420247077941895,0.5507001876831055
1712834895120935200,10.47293505859375,-0.5686013698577881,-1.4354758262634277,0.44707727432250977
1712834895140935200,10.49293505859375,-5.386387825012207,-0.05139350891113281,4.068758010864258
1712834895160935400,10.512935302734375,-5.789582252502441,-0.23633623123168945,3.6931259632110596
1712834895180935400,10.532935302734375,-3.5293455123901367,-0.4658021926879883,7.747293472290039
1712834895200935400,10.552935302734374,-3.642622709274292,-0.7027549743652344,7.3754096031188965
1712834895220935400,10.572935302734376,-7.6347808837890625,4.173173904418945,5.090065002441406
1712834895240935400,10.592935302734375,-7.497502326965332,4.0333662033081055,4.977044582366943
1712834895260935200,10.61293505859375,-4.336297035217285,-1.6075725555419922,1.8714268207550049
1712834895280935200,10.63293505859375,-1.3285526037216187,0.1847519874572754,1.5952842235565186
1712834895300935400,10.652935302734376,-1.2257052659988403,0.16262531280517578,1.6194908618927002
1712834895320935400,10.672935302734375,5.427605628967285,7.912890911102295,10.838112831115723
1712834895340935400,10.692935302734375,5.007410049438477,7.8078203201293945,9.881147384643555
1712834895360935400,10.712935302734374,5.27897834777832,7.751946926116943,9.929895401000977
1712834895380935400,10.732935302734376,5.360713958740234,7.195980072021484,10.936078071594238
1712834895400935200,10.75293505859375,5.691650867462158,7.075775146484375,10.874387741088867
1712834895420935200,10.77293505859375,3.0850672721862793,5.308374404907227,11.848334312438965
1712834895440935200,10.79293505859375,0.022155284881591797,5.946351051330566,2.164109468460083
1712834895460935200,10.81293505859375,0.09269833564758301,5.792736053466797,1.9060523509979248
1712834895480935200,10.83293505859375,0.1419391632080078,4.807220458984375,1.4627642631530762
1712834895500935200,10.85293505859375,-0.23562932014465332,2.590449333190918,0.39780688285827637
1712834895520935200,10.87293505859375,-0.43118321895599365,2.522869110107422,0.18152379989624023
1712834895540935200,10.89293505859375,-0.2784903049468994,1.7436895370483398,0.6727643013000488
1712834895560935200,10.91293505859375,-0.508490800857544,1.6004915237426758,1.4082820415496826
1712834895580935200,10.93293505859375,-1.0466123819351196,1.2505149841308594,1.4983576536178589
1712834895600935200,10.95293505859375,-1.1919060945510864,1.2401962280273438,1.3736556768417358
1712834895620935200,10.97293505859375,1.0825955867767334,0.11511516571044922,0.9843587875366211
1712834895640935200,10.99293505859375,1.0852432250976562,0.09131145477294922,0.9184613227844238
1712834895660935400,11.012935302734375,-0.8608138561248779,2.1934146881103516,0.7203264236450195
1712834895680935400,11.032935302734375,-1.1502825021743774,-0.7022762298583984,-0.8715438842773438
1712834895700935400,11.052935302734374,0.37642908096313477,-2.6237263679504395,-0.21489787101745605
1712834895720935400,11.072935302734376,0.03228902816772461,-2.742105007171631,-3.9716150760650635
1712834895740935400,11.092935302734375,-1.9027509689331055,-3.251664638519287,-4.710598945617676
1712834895760935200,11.11293505859375,-1.7067286968231201,-2.630204677581787,-2.910372495651245
1712834895780935200,11.13293505859375,-1.029893398284912,-2.0905327796936035,-2.0424704551696777
1712834895800935400,11.152935302734376,-0.9312188625335693,-1.9517216682434082,-1.7224469184875488
1712834895820935400,11.172935302734375,-0.9800111055374146,-1.7190661430358887,-1.6651782989501953
1712834895840935400,11.192935302734375,-1.6476879119873047,-1.8546996116638184,-3.290736675262451
1712834895860935400,11.212935302734374,-1.590600848197937,-2.088930606842041,-2.70396089553833
1712834895880935400,11.232935302734376,-1.458788514137268,-1.8729653358459473,-2.2740440368652344
1712834895900935200,11.25293505859375,-2.2940399646759033,-2.0589728355407715,-3.2222418785095215
1712834895920935200,11.27293505859375,-1.953786849975586,-1.800471305847168,-4.713711261749268
1712834895940935200,11.29293505859375,-2.397409439086914,-0.7268085479736328,-4.8506855964660645
1712834895960935200,11.31293505859375,-2.9583144187927246,1.0462346076965332,-4.149797439575195
1712834895980935200,11.33293505859375,-3.214852809906006,1.338541030883789,-3.9443531036376953
1712834896000935200,11.35293505859375,-6.123367786407471,0.8493690490722656,-1.9766321182250977
1712834896020935200,11.37293505859375,-8.508111953735352,3.291840076446533,7.348659515380859
1712834896040935200,11.39293505859375,-3.8490240573883057,5.144735813140869,16.046552658081055
1712834896060935200,11.41293505859375,-3.4801599979400635,0.2162480354309082,13.473398208618164
1712834896080935200,11.43293505859375,-3.6516687870025635,0.11788415908813477,13.282282829284668
1712834896100935200,11.45293505859375,-7.706778526306152,-0.2449793815612793,7.890960693359375
1712834896120935200,11.47293505859375,-7.547842502593994,-0.4444766044616699,7.763816833496094
1712834896140935200,11.49293505859375,-5.25266170501709,-0.17313098907470703,5.2191948890686035
1712834896160935400,11.512935302734375,-2.588456630706787,0.38564395904541016,3.32283616065979
1712834896180935400,11.532935302734375,3.93681263923645,7.07692289352417,7.336064338684082
1712834896200935400,11.552935302734374,4.623256683349609,10.999197006225586,8.875845909118652
1712834896220935400,11.572935302734376,4.851261138916016,10.847858428955078,8.788702964782715
1712834896240935400,11.592935302734375,3.9996519088745117,10.105247497558594,10.998001098632812
1712834896260935200,11.61293505859375,3.918759346008301,7.2735090255737305,10.17194938659668
1712834896280935200,11.63293505859375,1.8185020685195923,7.591440200805664,9.464273452758789
1712834896300935400,11.652935302734376,-0.7173384428024292,6.611789703369141,6.419407844543457
1712834896320935400,11.672935302734375,-0.540968656539917,6.404036521911621,6.091954231262207
1712834896340935400,11.692935302734375,-1.370404839515686,3.775747299194336,-0.7816061973571777
1712834896360935400,11.712935302734374,-1.172973871231079,2.5606393814086914,-2.3882484436035156
1712834896380935400,11.732935302734376,-0.5496105551719666,2.400139808654785,-1.3025121688842773
1712834896400935200,11.75293505859375,-0.8289943337440491,2.390382766723633,-1.4312174320220947
1712834896420935200,11.77293505859375,-0.12633037567138672,1.2333927154541016,3.1553215980529785
1712834896440935200,11.79293505859375,-0.8792622089385986,0.3432273864746094,3.5751774311065674
1712834896460935200,11.81293505859375,-0.8137819766998291,-0.144287109375,1.5100345611572266
1712834896480935200,11.83293505859375,-0.9155538082122803,-0.0975809097290039,1.5568020343780518
1712834896500935200,11.85293505859375,-0.08533644676208496,-0.8136096000671387,-1.0366618633270264
1712834896520935200,11.87293505859375,-0.5312325954437256,-0.6017837524414062,-0.7108182907104492
1712834896540935200,11.89293505859375,-0.5390543937683105,-0.5210704803466797,-0.5446128845214844
1712834896560935200,11.91293505859375,-2.032456398010254,-0.5032424926757812,-1.2613463401794434
1712834896580935200,11.93293505859375,3.7035834789276123,0.03902244567871094,0.40605783462524414
1712834896600935200,11.95293505859375,1.7736518383026123,-1.0718703269958496,1.0911061763763428
1712834896620935200,11.97293505859375,-0.6170938014984131,-1.2902092933654785,-2.8450369834899902
1712834896640935200,11.99293505859375,-1.0299376249313354,-2.012176990509033,-4.463761329650879
1712834896660935400,12.012935302734375,-0.21275067329406738,-1.7221403121948242,-2.4390878677368164
1712834896680935400,12.032935302734375,0.08948731422424316,-1.0847196578979492,-0.48560667037963867
1712834896700935400,12.052935302734374,-0.05872941017150879,-0.8546862602233887,0.01882314682006836
1712834896720935400,12.072935302734376,-0.24613285064697266,-1.4011621475219727,0.08490753173828125
1712834896740935400,12.092935302734375,-1.2521543502807617,-1.2571640014648438,0.5090608596801758
1712834896760935200,12.11293505859375,-0.5135328769683838,-1.0353403091430664,0.35250329971313477
1712834896780935200,12.13293505859375,-0.39132440090179443,-1.659562110900879,-0.34127378463745117
1712834896800935400,12.152935302734376,-0.5613918304443359,-2.002964496612549,-1.7993197441101074
1712834896820935400,12.172935302734375,-0.9037753343582153,-1.9517183303833008,-3.1580185890197754
1712834896840935400,12.192935302734375,-1.1105988025665283,-1.511070728302002,-4.563539981842041
1712834896860935400,12.212935302734374,-1.2087202072143555,-0.2788963317871094,-6.218507289886475
1712834896880935400,12.232935302734376,-3.124666690826416,0.2624187469482422,-2.609966278076172
1712834896900935200,12.25293505859375,-2.907757520675659,0.38855981826782227,1.2530579566955566
1712834896920935200,12.27293505859375,-4.0432844161987305,0.006822109222412109,3.724672555923462
1712834896940935200,12.29293505859375,-5.22799015045166,0.12740850448608398,5.780276775360107
1712834896960935200,12.31293505859375,-4.918952941894531,1.6340031623840332,9.691337585449219
1712834896980935200,12.33293505859375,-5.295984745025635,1.370922565460205,9.233327865600586
1712834897000935200,12.35293505859375,-6.581433296203613,2.4253602027893066,8.092288970947266
1712834897020935200,12.37293505859375,-7.504574298858643,-1.4569997787475586,8.390937805175781
1712834897040935200,12.39293505859375,-6.808047771453857,-1.9891276359558105,4.9254961013793945
1712834897060935200,12.41293505859375,-4.1324357986450195,-0.32938241958618164,1.478783130645752
1712834897080935200,12.43293505859375,-3.9395737648010254,-0.4331488609313965,1.4563064575195312
1712834897100935200,12.45293505859375,1.6849675178527832,3.136536121368408,3.7359108924865723
1712834897120935200,12.47293505859375,8.539225578308105,9.528533935546875,10.442036628723145
1712834897140935200,12.49293505859375,7.010697364807129,11.782341003417969,13.55980110168457
1712834897160935400,12.512935302734375,4.958817958831787,10.801961898803711,16.161550521850586
1712834897180935400,12.532935302734375,5.3865485191345215,10.572397232055664,16.001893997192383
1712834897200935400,12.552935302734374,2.7849607467651367,10.125908851623535,13.269540786743164
1712834897220935400,12.572935302734376,0.4428788423538208,9.356988906860352,5.908997058868408
1712834897240935400,12.592935302734375,-2.26389741897583,4.9803314208984375,-0.5051937103271484
1712834897260935200,12.61293505859375,-1.3346290588378906,2.902420997619629,-0.7949814796447754
1712834897280935200,12.63293505859375,-1.5273923873901367,2.833559989929199,-0.996701717376709
1712834897300935400,12.652935302734376,-1.4166631698608398,1.8903141021728516,1.1083347797393799
1712834897320935400,12.672935302734375,-1.640223503112793,1.8485107421875,0.9112329483032227
1712834897340935400,12.692935302734375,-0.37285661697387695,0.5521831512451172,2.6437244415283203
1712834897360935400,12.712935302734374,-0.594301700592041,0.5355491638183594,2.460282325744629
1712834897380935400,12.732935302734376,0.40511059761047363,0.5995731353759766,2.8047893047332764
1712834897400935200,12.75293505859375,-0.44736456871032715,0.43717193603515625,1.7645282745361328
1712834897420935200,12.77293505859375,-1.0667145252227783,0.6140708923339844,-0.2911665439605713
1712834897440935200,12.79293505859375,-2.6903624534606934,-1.596785545349121,-1.8834607601165771
1712834897460935200,12.81293505859375,-2.7142245769500732,-1.5607414245605469,-1.8069698810577393
1712834897480935200,12.83293505859375,1.769599437713623,-1.4791626930236816,-0.3558807373046875
1712834897500935200,12.85293505859375,-0.17223525047302246,-2.913504123687744,-2.2468879222869873
1712834897520935200,12.87293505859375,-1.78599214553833,-3.0582427978515625,-5.35187292098999
1712834897540935200,12.89293505859375,-0.8809734582901001,-2.549984931945801,-4.063579082489014
1712834897560935200,12.91293505859375,-0.7889002561569214,-2.4114151000976562,-3.7691650390625
1712834897580935200,12.93293505859375,-0.4344080686569214,-1.2229914665222168,-1.0614981651306152
1712834897600935200,12.95293505859375,-0.3246661424636841,-1.0335898399353027,-0.7299747467041016
1712834897620935200,12.97293505859375,0.02663123607635498,-1.3973817825317383,-1.743335247039795
1712834897640935200,12.99293505859375,0.2147434949874878,-1.1765599250793457,-1.4029860496520996
1712834897660935400,13.012935302734375,-0.8933950066566467,-1.549532413482666,-1.69769287109375
1712834897680935400,13.032935302734375,-0.32209348678588867,-1.5760717391967773,-1.19205904006958
1712834897700935400,13.052935302734374,0.041918158531188965,-1.3939495086669922,-1.6147279739379883
1712834897720935400,13.072935302734376,-0.40574294328689575,-1.2811498641967773,-2.01607608795166
1712834897740902100,13.092902099609375,-0.2294432520866394,-0.847844123840332,-2.0822367668151855
1712834897760868400,13.112868408203125,-0.791554868221283,0.3185915946960449,-1.5558757781982422
1712834897780835000,13.1328349609375,-1.2172969579696655,0.9132018089294434,-3.0936732292175293
1712834897800801800,13.1528017578125,-0.736208975315094,1.3212828636169434,-2.3150949478149414
1712834897820768500,13.1727685546875,-1.1792923212051392,1.3739562034606934,-2.32991886138916
1712834897840735200,13.1927353515625,-4.82318115234375,0.6512908935546875,5.446696758270264
1712834897860701700,13.21270166015625,-4.615914821624756,0.015370845794677734,10.093341827392578
1712834897880668400,13.23266845703125,-3.7825512886047363,-0.36548423767089844,10.24571704864502
1712834897900635000,13.252634765625,-6.158294677734375,2.6131162643432617,10.131511688232422
1712834897920601600,13.2726015625,-6.367191314697266,1.9187555313110352,7.366404056549072
1712834897940568000,13.292568115234374,-4.548654556274414,0.43581104278564453,4.540957450866699
1712834897960534800,13.31253466796875,-4.364776611328125,0.2272939682006836,4.408364772796631
1712834897980501500,13.33250146484375,-1.2357888221740723,-0.7092161178588867,3.003364086151123
1712834898000468200,13.35246826171875,-1.1686515808105469,-0.832282543182373,2.887359142303467
1712834898020435200,13.372435302734376,2.8008992671966553,1.7610883712768555,4.772960186004639
1712834898040401700,13.392401611328125,5.41441535949707,7.173140048980713,6.90709924697876
1712834898060368400,13.412368408203125,4.8457841873168945,11.837268829345703,11.01269817352295
1712834898080335000,13.432335205078125,5.141165256500244,11.656490325927734,10.894290924072266
1712834898100301800,13.4523017578125,2.3160288333892822,10.0823974609375,15.007412910461426
1712834898120268500,13.4722685546875,1.5523455142974854,9.221019744873047,9.988473892211914
1712834898140235000,13.492235107421875,-0.0035827159881591797,7.883094787597656,7.218517303466797
1712834898160201700,13.51220166015625,0.1434398889541626,7.66705322265625,6.854739665985107
1712834898180168400,13.53216845703125,-2.1135213375091553,4.223929405212402,0.04285240173339844
1712834898200135200,13.55213525390625,-2.020174980163574,3.0056962966918945,0.10633563995361328
1712834898220102000,13.572101806640624,-2.4411027431488037,2.0156946182250977,2.118748664855957
1712834898240068400,13.592068359375,-2.621577739715576,1.925323486328125,1.771845817565918
1712834898260034800,13.612034912109374,1.5487523078918457,1.0995655059814453,4.89396858215332
1712834898280001500,13.63200146484375,0.8644863367080688,1.4175834655761719,4.508297920227051
1712834898299968300,13.65196826171875,-0.988811731338501,2.330169677734375,1.875957727432251
1712834898319934700,13.671934814453126,-2.6641125679016113,2.0516042709350586,-2.523709535598755
1712834898339934700,13.691934814453125,-4.634773254394531,0.7269067764282227,-5.247066020965576
1712834898359934700,13.711934814453125,-2.1041505336761475,-2.646721839904785,-4.877187728881836
1712834898379934700,13.731934814453124,-2.2389726638793945,-2.594705581665039,-4.805290222167969
1712834898399934700,13.751934814453126,1.3672282695770264,-2.4003396034240723,-3.1197128295898438
1712834898419934700,13.771934814453125,1.2257273197174072,-2.250004291534424,-2.7349488735198975
1712834898439934700,13.791934814453125,-1.1452560424804688,-3.4021787643432617,-5.583876609802246
1712834898459934700,13.811934814453124,-0.5126397609710693,-1.398688793182373,-3.3772339820861816
1712834898479934700,13.831934814453126,-0.46271347999572754,-1.2151198387145996,-2.9274697303771973
1712834898499934700,13.851934814453125,-0.33231472969055176,-2.114685535430908,-2.603513717651367
1712834898519935200,13.871935302734375,-0.11927556991577148,-2.4297966957092285,-2.5018162727355957
1712834898539935200,13.891935302734375,0.004918575286865234,-2.191279888153076,-2.0704503059387207
1712834898559935200,13.911935302734374,-1.1696953773498535,-2.5555429458618164,-2.7440528869628906
1712834898579935200,13.931935302734376,-0.951390266418457,-2.3128576278686523,-2.357879638671875
1712834898599935200,13.951935302734375,-0.893229603767395,-1.6114211082458496,-1.359351634979248
1712834898619934700,13.971934814453125,-0.7316916584968567,-2.548631191253662,-1.9110255241394043
1712834898639934700,13.991934814453124,-1.206145167350769,-2.103818416595459,-1.5916976928710938
1712834898659934700,14.011934814453125,-1.0727251768112183,-1.8562135696411133,-1.3472461700439453
1712834898679934700,14.031934814453125,-1.427620768547058,-0.5154781341552734,-0.8725733757019043
1712834898699934700,14.051934814453125,-2.6315479278564453,2.2695674896240234,-3.2400012016296387
1712834898719934700,14.071934814453124,-0.35277867317199707,1.1606559753417969,-0.4067516326904297
1712834898739934700,14.091934814453126,-0.8872486352920532,1.1275014877319336,-0.5681643486022949
1712834898759934700,14.111934814453125,-6.151142120361328,-0.8184480667114258,9.450931549072266
1712834898779934700,14.131934814453125,-6.667661666870117,-1.1310977935791016,8.948460578918457
1712834898799934700,14.151934814453124,-6.172769546508789,-0.608609676361084,9.504772186279297
1712834898819934700,14.171934814453126,-7.877310752868652,5.059628009796143,8.637950897216797
1712834898839934700,14.191934814453125,-7.820850372314453,5.884057521820068,9.43183708190918
1712834898859934700,14.211934814453125,-3.4178121089935303,-0.44092607498168945,4.598996639251709
1712834898879934700,14.231934814453124,-3.867485523223877,1.068617820739746,1.770817756652832
1712834898899934700,14.251934814453126,-3.5500433444976807,0.9439058303833008,1.7728757858276367
1712834898919934700,14.271934814453125,-0.029442310333251953,2.773204803466797,2.261716842651367
1712834898939934700,14.291934814453125,6.436500072479248,6.936187744140625,6.075579643249512
1712834898959934700,14.311934814453124,6.636014938354492,6.939099311828613,6.182561874389648
1712834898979934700,14.331934814453126,7.367431640625,8.737275123596191,9.797994613647461
1712834898999934700,14.351934814453125,4.132981777191162,7.92635440826416,15.473712921142578
1712834899019935200,14.371935302734375,2.0816233158111572,8.626815795898438,9.105264663696289
1712834899039935200,14.391935302734375,0.2899051308631897,7.192477226257324,3.2407116889953613
1712834899059935200,14.411935302734374,-0.38659095764160156,5.629220962524414,1.5579273700714111
1712834899079935200,14.431935302734376,-0.49057745933532715,3.2288150787353516,0.5896339416503906
1712834899099935200,14.451935302734375,-0.6567810773849487,3.138029098510742,0.3438990116119385
1712834899119934700,14.471934814453125,-1.206141710281372,1.364572525024414,0.32427358627319336
1712834899139934700,14.491934814453124,-0.5357107520103455,1.2523784637451172,1.5294383764266968
1712834899159934700,14.511934814453125,2.4730257987976074,1.3076553344726562,4.065727710723877
1712834899179934700,14.531934814453125,1.292404294013977,1.4900484085083008,3.321995973587036
1712834899199934700,14.551934814453125,-1.3569204807281494,1.982828140258789,1.6605339050292969
1712834899219934700,14.571934814453124,-0.3901268243789673,2.4167070388793945,-1.0859599113464355
1712834899239934700,14.591934814453126,-0.4119306802749634,1.081242561340332,-0.08558917045593262
1712834899259934700,14.611934814453125,-0.6353932619094849,-2.7062344551086426,-1.875575065612793
1712834899279934700,14.631934814453125,-0.7524451017379761,-2.6595425605773926,-1.8174419403076172
1712834899299934700,14.651934814453124,1.900439739227295,-2.8427224159240723,-1.38374924659729
1712834899319934700,14.671934814453126,-0.21117854118347168,-2.454530715942383,-2.011873722076416
1712834899339934700,14.691934814453125,-1.2848361730575562,-2.587648868560791,-4.40638542175293
1712834899359934700,14.711934814453125,-1.3511589765548706,-2.534536361694336,-2.8006157875061035
1712834899379934700,14.731934814453124,-1.3173726797103882,-2.374711036682129,-2.4581174850463867
1712834899399934700,14.751934814453126,-0.6695045232772827,-2.743581771850586,-0.5350561141967773
1712834899419934700,14.771934814453125,-0.4752767086029053,-2.869518280029297,-2.7066164016723633
1712834899439934700,14.791934814453125,-0.25703656673431396,-2.6268882751464844,-2.2640514373779297
1712834899459934700,14.811934814453124,-0.6001781225204468,-2.628739833831787,-3.034423828125
1712834899479934700,14.831934814453126,-0.422357439994812,-1.5126218795776367,-2.543058395385742
1712834899499934700,14.851934814453125,0.09659743309020996,-2.1856002807617188,-3.1445093154907227
1712834899519935200,14.871935302734375,-0.10392343997955322,-2.0940041542053223,-3.1223745346069336
1712834899539935200,14.891935302734375,-0.8434579372406006,-0.7899179458618164,-3.846353530883789
1712834899559935200,14.911935302734374,-0.759980320930481,0.3236374855041504,-0.8203916549682617
1712834899579935200,14.931935302734376,-1.5437653064727783,-0.3222360610961914,1.4492807388305664
1712834899599935200,14.951935302734375,-5.078115463256836,0.748781681060791,5.629197597503662
1712834899619934700,14.971934814453125,-4.862588405609131,1.5251736640930176,10.536152839660645
1712834899639934700,14.991934814453124,-5.332679271697998,1.3583183288574219,10.143013000488281
1712834899659934700,15.011934814453125,-3.4694266319274902,0.4109773635864258,11.716388702392578
1712834899679934700,15.031934814453125,-4.163606643676758,1.9556989669799805,10.806653022766113
1712834899699934700,15.051934814453125,-6.122152328491211,1.6757683753967285,7.288147926330566
1712834899719934700,15.071934814453124,-3.8616456985473633,-0.053922176361083984,1.5042786598205566
1712834899739934700,15.091934814453126,-1.4709175825119019,1.4620628356933594,1.6124131679534912
1712834899759934700,15.111934814453125,1.7127392292022705,4.294736385345459,4.187489032745361
1712834899779934700,15.131934814453125,1.7718753814697266,4.218729496002197,4.1058349609375
1712834899799934700,15.151934814453124,5.551015853881836,6.0660552978515625,6.403806209564209
1712834899819934700,15.171934814453126,8.54458236694336,7.0934295654296875,9.568906784057617
1712834899839934700,15.191934814453125,7.700541019439697,6.966526985168457,13.544105529785156
1712834899859934700,15.211934814453125,1.1582841873168945,7.821550369262695,10.00270938873291
1712834899879934700,15.231934814453124,1.5962332487106323,7.663778305053711,9.882282257080078
1712834899899934700,15.251934814453126,0.476871132850647,5.471014022827148,1.254643440246582
1712834899919934700,15.271934814453125,0.5148274898529053,5.325461387634277,0.9972352981567383
1712834899939934700,15.291934814453125,-0.3358347415924072,3.553380012512207,0.4614734649658203
1712834899959934700,15.311934814453124,-0.0007436275482177734,1.3581228256225586,2.0281777381896973
1712834899979934700,15.331934814453126,-0.15590953826904297,1.2780723571777344,1.7922723293304443
1712834899999934700,15.351934814453125,-0.3855077028274536,0.9650630950927734,2.6043894290924072
1712834900019935200,15.371935302734375,0.28467226028442383,0.6438808441162109,3.470050096511841
1712834900039935200,15.391935302734375,0.8577107191085815,0.12984752655029297,2.578202724456787
1712834900059935200,15.411935302734374,0.21437466144561768,0.29864978790283203,1.5509412288665771
1712834900079935200,15.431935302734376,0.224798321723938,0.2889566421508789,1.5291171073913574
1712834900099935200,15.451935302734375,0.8081649541854858,-0.6486673355102539,-2.463576555252075
1712834900119934700,15.471934814453125,0.7821402549743652,-0.6281881332397461,-2.4201226234436035
1712834900139934700,15.491934814453124,0.6758712530136108,-0.7291011810302734,-2.1791436672210693
1712834900159934700,15.511934814453125,2.5612192153930664,-0.2606229782104492,-2.124244451522827
1712834900179934700,15.531934814453125,2.5939035415649414,-0.16727447509765625,-1.8670411109924316
1712834900199934700,15.551934814453125,2.768289089202881,-2.519069194793701,-2.640678644180298
1712834900219934700,15.571934814453124,-0.859235405921936,-1.4357028007507324,-4.8194804191589355
1712834900239934700,15.591934814453126,-0.7648345232009888,-1.2595419883728027,-4.451539993286133
1712834900259934700,15.611934814453125,1.0596853494644165,-0.9679379463195801,-3.1405911445617676
1712834900279934700,15.631934814453125,1.4682507514953613,-1.35453462600708,-1.7941837310791016
1712834900299934700,15.651934814453124,0.7298507690429688,-1.6651201248168945,-3.1058239936828613
1712834900319934700,15.671934814453126,0.7987524271011353,-1.417802333831787,-2.7770633697509766
1712834900339934700,15.691934814453125,-0.6252611875534058,-1.870943546295166,-2.3135228157043457
1712834900359934700,15.711934814453125,-0.6494289636611938,-1.6529908180236816,-2.079317569732666
1712834900379934700,15.731934814453124,-2.310750722885132,-1.3475823402404785,-1.4753670692443848
1712834900399934700,15.751934814453126,-0.3984847068786621,0.05379915237426758,0.2328648567199707
1712834900419934700,15.771934814453125,-0.676250696182251,0.1063070297241211,0.22150230407714844
1712834900439934700,15.791934814453125,-4.375998497009277,-0.8696837425231934,5.253100872039795
1712834900459934700,15.811934814453124,-1.8069233894348145,-2.040452003479004,7.688145160675049
1712834900479934700,15.831934814453126,-2.7851696014404297,-1.8093791007995605,6.430174827575684
1712834900499934700,15.851934814453125,-5.082983493804932,2.4393796920776367,7.084992408752441
1712834900519935200,15.871935302734375,-5.31190299987793,3.329648017883301,7.994589328765869
1712834900539935200,15.891935302734375,-3.0553596019744873,-2.3389840126037598,5.162112236022949
1712834900559935200,15.911935302734374,-2.962155342102051,-2.46736478805542,5.02699089050293
1712834900579935200,15.931935302734376,-1.996476411819458,-1.0390758514404297,4.154547214508057
1712834900599935200,15.951935302734375,0.915412187576294,1.5658211708068848,3.7752301692962646
1712834900619934700,15.971934814453125,3.3615939617156982,4.43170166015625,3.8794946670532227
1712834900639934700,15.991934814453124,6.824100017547607,5.193003177642822,4.650671482086182
1712834900659934700,16.011934814453124,5.568243503570557,5.870706558227539,8.585885047912598
1712834900679934700,16.031934814453123,1.2898218631744385,7.350104331970215,12.611150741577148
1712834900699934700,16.051934814453126,2.697329044342041,7.623195648193359,10.873068809509277
1712834900719934700,16.071934814453126,2.975963830947876,7.479863166809082,10.728574752807617
1712834900739934700,16.091934814453126,4.381008625030518,5.777721405029297,7.434488296508789
1712834900759934700,16.111934814453125,1.7781569957733154,4.502305030822754,5.165136814117432
1712834900779934700,16.131934814453125,1.7968968152999878,4.3658857345581055,4.906039714813232
1712834900799934700,16.151934814453124,-0.14014506340026855,3.1607656478881836,2.9243111610412598
1712834900819934700,16.171934814453124,-1.4206669330596924,2.217304229736328,2.4780192375183105
1712834900839934700,16.191934814453123,-0.3702571988105774,0.6995429992675781,3.030183792114258
1712834900859934700,16.211934814453127,0.25948822498321533,0.5170183181762695,3.242776393890381
1712834900879934700,16.231934814453126,0.013483643531799316,0.2947425842285156,3.3826608657836914
1712834900899934700,16.251934814453126,-0.4419649839401245,-0.1522216796875,1.6806461811065674
1712834900919934700,16.271934814453125,-0.418349027633667,-0.1924877166748047,1.5479683876037598
1712834900939934700,16.291934814453125,-1.506719946861267,0.10880661010742188,-1.5598418712615967
1712834900959934700,16.311934814453124,-1.4374009370803833,-3.4971084594726562,-4.931520462036133
1712834900979934700,16.331934814453124,2.8751933574676514,-2.3135547637939453,-5.356269359588623
1712834900999934700,16.351934814453124,2.7659478187561035,-2.1070303916931152,-4.789095878601074
1712834901019935200,16.371935302734375,2.8109822273254395,-1.9588046073913574,-4.345872402191162
1712834901039935200,16.391935302734375,0.7256226539611816,-3.273080825805664,-6.543972015380859
1712834901059935200,16.411935302734374,0.4819211959838867,-2.972196578979492,-6.832832336425781
1712834901079935200,16.431935302734374,-0.7816119194030762,-1.605398178100586,-3.917454719543457
1712834901099935200,16.451935302734373,0.959069013595581,0.21085643768310547,-2.0708842277526855
1712834901119934700,16.471934814453125,0.824779748916626,0.0040912628173828125,-0.6063404083251953
1712834901139934700,16.491934814453124,-0.10796219110488892,-0.7002043724060059,-1.0495429039001465
1712834901159934700,16.511934814453124,0.09073370695114136,-0.8573007583618164,-1.7261567115783691
1712834901179934700,16.531934814453123,0.4385574162006378,-0.7304878234863281,-0.8810510635375977
1712834901199934700,16.551934814453126,0.9633277654647827,0.8103499412536621,-1.6393604278564453
1712834901219934700,16.571934814453126,0.9538019299507141,1.1521644592285156,-1.3432998657226562
1712834901239934700,16.591934814453126,-0.011018216609954834,2.6500110626220703,-3.7593579292297363
1712834901259934700,16.611934814453125,-0.4690355658531189,1.155886173248291,3.378235340118408
1712834901279934700,16.631934814453125,-1.1174683570861816,0.8756213188171387,5.890972137451172
1712834901299934700,16.651934814453124,-4.194314956665039,1.1250224113464355,7.595859527587891
1712834901319934700,16.671934814453124,-4.695647239685059,0.9809794425964355,7.309948921203613
1712834901339934700,16.691934814453123,-4.705015182495117,0.5054969787597656,7.940211772918701
1712834901359934700,16.711934814453127,-4.948221206665039,0.2980341911315918,7.633901119232178
1712834901379934700,16.731934814453126,-8.241924285888672,1.991943359375,6.736634731292725
1712834901399934700,16.751934814453126,-5.569486618041992,0.4003715515136719,8.120416641235352
1712834901419934700,16.771934814453125,-1.1337075233459473,0.029528141021728516,5.9796576499938965
1712834901439934700,16.791934814453125,1.979369878768921,2.491513252258301,3.964679718017578
1712834901459934700,16.811934814453124,2.1537914276123047,2.399918556213379,3.948671817779541
1712834901479934700,16.831934814453124,7.1620941162109375,5.271401882171631,9.213027000427246
1712834901499934700,16.851934814453124,7.432943344116211,5.1490678787231445,9.18836784362793
1712834901519935200,16.871935302734375,6.583256721496582,8.04484748840332,12.339958190917969
1712834901539935200,16.891935302734375,2.1002635955810547,6.939795017242432,9.70642375946045
1712834901559935200,16.911935302734374,1.5600210428237915,7.627732276916504,3.909609317779541
1712834901579935200,16.931935302734374,1.7085963487625122,7.439538955688477,3.6624717712402344
1712834901599935200,16.951935302734373,1.339334487915039,4.0597028732299805,2.7082974910736084
1712834901619934700,16.971934814453125,1.3031513690948486,2.221647262573242,3.204132556915283
1712834901639934700,16.991934814453124,1.7245746850967407,1.2170219421386719,4.28929328918457
1712834901659934700,17.011934814453124,1.0471148490905762,1.511993408203125,5.35372257232666
1712834901679934700,17.031934814453123,0.582648515701294,2.018972396850586,5.587521553039551
1712834901699934700,17.051934814453126,-1.0519951581954956,2.1814842224121094,4.0524678230285645
1712834901719934700,17.071934814453126,-0.897091269493103,1.3882160186767578,1.0945932865142822
1712834901739934700,17.091934814453126,-0.13235032558441162,0.1840991973876953,-0.3534693717956543
1712834901759934700,17.111934814453125,0.36605942249298096,0.2765312194824219,0.5300471782684326
1712834901779934700,17.131934814453125,0.3719336986541748,0.24167346954345703,0.44584155082702637
1712834901799934700,17.151934814453124,0.974990725517273,-1.4235496520996094,-1.851440191268921
1712834901819934700,17.171934814453124,1.0225346088409424,-1.3983993530273438,-1.7621738910675049
1712834901839934700,17.191934814453123,2.20253849029541,-2.212677478790283,-1.8792483806610107
1712834901859934700,17.211934814453127,-0.8505726456642151,-2.009648323059082,-5.555962562561035
1712834901879934700,17.231934814453126,-1.3845806121826172,-2.9167585372924805,-7.42301082611084
1712834901899934700,17.251934814453126,0.009117722511291504,-3.1899375915527344,-4.526880264282227
1712834901919934700,17.271934814453125,-0.18536794185638428,-1.9405994415283203,-2.591708183288574
1712834901939934700,17.291934814453125,-0.282842755317688,-0.9830656051635742,-1.3891711235046387
1712834901959934700,17.311934814453124,-0.28672313690185547,-0.7950434684753418,-1.1161303520202637
1712834901979934700,17.331934814453124,-0.3531534671783447,-1.6401662826538086,0.3185253143310547
1712834901999934700,17.351934814453124,-0.1754974126815796,-1.0670838356018066,0.4721827507019043
1712834902019935200,17.371935302734375,0.41757118701934814,-1.4305343627929688,-0.6737737655639648
1712834902039935000,17.39193505859375,0.5883100628852844,-1.1913995742797852,-0.3882288932800293
1712834902059935200,17.411935302734374,0.510640561580658,-1.4430623054504395,-2.9376397132873535
1712834902079935000,17.43193505859375,-0.4763447344303131,-0.5544805526733398,-4.5664777755737305
1712834902099935200,17.451935302734373,-0.48021194338798523,0.3818221092224121,-4.128462314605713
1712834902119934700,17.471934814453125,-0.7759559154510498,0.47100114822387695,-1.9423694610595703
1712834902139934700,17.491934814453124,-4.316181182861328,0.7039980888366699,0.26793766021728516
1712834902159934700,17.511934814453124,-5.992227554321289,1.0040698051452637,7.273304462432861
1712834902179934700,17.531934814453123,-2.506852865219116,-0.4188981056213379,10.689712524414062
1712834902199934700,17.551934814453126,-4.260781288146973,0.3488330841064453,10.013501167297363
1712834902219934700,17.571934814453126,-4.442728042602539,0.13714265823364258,9.683159828186035
1712834902239934700,17.591934814453126,-7.128735542297363,4.09859561920166,8.416956901550293
1712834902259934700,17.611934814453125,-4.869963645935059,-0.8988800048828125,4.935538291931152
1712834902279934700,17.631934814453125,-3.1817517280578613,0.6790909767150879,3.8643105030059814
1712834902299934700,17.651934814453124,0.6117880344390869,3.261598587036133,5.714123249053955
1712834902319934700,17.671934814453124,4.632501125335693,5.61723518371582,7.151871681213379
1712834902339934700,17.691934814453123,6.228607177734375,7.042659759521484,6.693053245544434
1712834902359934700,17.711934814453127,6.803949356079102,8.991455078125,8.926149368286133
1712834902379934700,17.731934814453126,4.748331069946289,8.640165328979492,13.767549514770508
1712834902399934700,17.751934814453126,5.117852210998535,8.504927635192871,13.73021411895752
1712834902419934700,17.771934814453125,3.568282127380371,8.08324146270752,10.012022972106934
1712834902439934700,17.791934814453125,2.091310501098633,7.445880889892578,6.085188865661621
1712834902459934700,17.811934814453124,0.477481484413147,5.821612358093262,4.092484951019287
1712834902479934700,17.831934814453124,-0.9030903577804565,4.18324089050293,2.8676228523254395
1712834902499934700,17.851934814453124,-1.8361542224884033,3.124119758605957,2.3274178504943848
1712834902519935000,17.87193505859375,-1.8898193836212158,2.978384017944336,2.0060319900512695
1712834902539935000,17.89193505859375,-2.2101407051086426,0.9122467041015625,2.4273719787597656
1712834902559935000,17.91193505859375,-2.379338026046753,0.8256635665893555,2.1474690437316895
1712834902579935000,17.93193505859375,2.1632437705993652,0.34493350982666016,4.484583854675293
1712834902599935000,17.95193505859375,1.1476564407348633,1.0239229202270508,2.641775131225586
1712834902619934700,17.971934814453125,1.0972508192062378,0.9905319213867188,2.5061044692993164
1712834902639934700,17.991934814453124,-1.1882812976837158,0.6217889785766602,-0.5963802337646484
1712834902659934700,18.011934814453124,-1.1942458152770996,-2.110833168029785,-2.6568822860717773
1712834902679934700,18.031934814453123,1.4332329034805298,-1.3155574798583984,-4.394617080688477
1712834902699934700,18.051934814453126,2.7701683044433594,-2.241304874420166,-4.41181755065918
1712834902719934700,18.071934814453126,2.7829461097717285,-2.1442627906799316,-4.114087104797363
1712834902739934700,18.091934814453126,0.8261427879333496,-2.4007210731506348,-3.553750514984131
1712834902759934700,18.111934814453125,0.030082106590270996,-2.3389453887939453,-5.094930648803711
1712834902779934700,18.131934814453125,-0.23932301998138428,-2.363327980041504,-4.773080825805664
1712834902799934700,18.151934814453124,-0.20460307598114014,-2.194547653198242,-4.423954010009766
1712834902819934700,18.171934814453124,0.5837452411651611,-1.3078489303588867,-2.2264647483825684
1712834902839934700,18.191934814453123,0.45541906356811523,-1.4727931022644043,-1.3729300498962402
1712834902859934700,18.211934814453127,0.1828087568283081,-1.7180461883544922,-0.655484676361084
1712834902879934700,18.231934814453126,0.17650508880615234,-1.4491610527038574,0.1421527862548828
1712834902899934700,18.251934814453126,0.4190882444381714,-1.1095914840698242,-0.21056747436523438
1712834902919934700,18.271934814453125,0.6119832992553711,-0.8625307083129883,0.1124720573425293
1712834902939934700,18.291934814453125,0.6360907554626465,-1.059389591217041,-0.18784236907958984
1712834902959934700,18.311934814453124,0.4362652897834778,-0.789827823638916,-0.316500186920166
1712834902979934700,18.331934814453124,0.6381269693374634,-0.5411310195922852,-0.07212066650390625
1712834902999934700,18.351934814453124,0.03375759720802307,-0.12027359008789062,-3.1724181175231934
1712834903019935000,18.37193505859375,0.21720311045646667,0.8348326683044434,-1.8876228332519531
1712834903039935000,18.39193505859375,0.7833730578422546,1.0137810707092285,-0.6743559837341309
1712834903059935000,18.41193505859375,0.8660192489624023,-0.42832183837890625,0.1765899658203125
1712834903079935000,18.43193505859375,0.2525675296783447,-0.4458599090576172,0.04969358444213867
1712834903099935000,18.45193505859375,-8.730772018432617,-1.2358746528625488,5.5109429359436035
1712834903119934700,18.471934814453125,-7.088622093200684,-0.15410709381103516,11.91389274597168
1712834903139934700,18.491934814453124,-4.920241355895996,1.549943447113037,12.822145462036133
1712834903159934700,18.511934814453124,-6.8073410987854,4.226043701171875,9.142637252807617
1712834903179934700,18.531934814453123,-6.813140869140625,3.977940559387207,8.80750846862793
1712834903199934700,18.551934814453126,-6.756446361541748,0.8210735321044922,6.120521545410156
1712834903219934700,18.571934814453126,-4.097235202789307,-0.8405861854553223,4.714939117431641
1712834903239934700,18.591934814453126,0.9867539405822754,5.530575275421143,6.199920654296875
1712834903259934700,18.611934814453125,4.846556663513184,7.641473770141602,6.584644794464111
1712834903279934700,18.631934814453125,5.0441083908081055,7.603996276855469,6.645537376403809
1712834903299934700,18.651934814453124,8.32276725769043,7.923410892486572,9.770724296569824
1712834903319934700,18.671934814453124,4.541586399078369,6.952906608581543,15.879260063171387
1712834903339934700,18.691934814453123,1.1501317024230957,9.067827224731445,8.860635757446289
1712834903359934700,18.711934814453127,0.377518892288208,8.54725456237793,2.0015082359313965
1712834903379934700,18.731934814453126,0.4703906774520874,5.266861915588379,1.1213736534118652
1712834903399934700,18.751934814453126,0.27534210681915283,2.9511985778808594,2.4189071655273438
1712834903419934700,18.771934814453125,-0.5607786178588867,1.7093114852905273,3.3574507236480713
1712834903439934700,18.791934814453125,-0.6094186305999756,1.954176902770996,3.2877449989318848
1712834903459934700,18.811934814453124,-0.250918984413147,2.0289831161499023,2.8194265365600586
1712834903479934700,18.831934814453124,-0.08646297454833984,1.2951955795288086,3.0480146408081055
1712834903499934700,18.851934814453124,-1.0681300163269043,0.30478763580322266,3.0318496227264404
1712834903519935000,18.87193505859375,-1.0635881423950195,0.2588071823120117,2.8854832649230957
1712834903539935000,18.89193505859375,-1.3385238647460938,-0.3404684066772461,2.230769634246826
1712834903559935000,18.91193505859375,0.910263180732727,0.005152702331542969,-0.5622720718383789
1712834903579935000,18.93193505859375,0.9182138442993164,0.0110931396484375,-0.5359930992126465
1712834903599935000,18.95193505859375,1.1992005109786987,-0.32119083404541016,-1.1414377689361572
1712834903619934700,18.971934814453125,2.110989570617676,-2.0858359336853027,-2.379692554473877
1712834903639934700,18.991934814453124,2.107057571411133,-1.9953293800354004,-2.1048941612243652
1712834903659934700,19.011934814453124,0.7273566722869873,-3.4498190879821777,-6.928122520446777
1712834903679934700,19.031934814453123,0.8077431917190552,-3.3102126121520996,-6.554786682128906
1712834903699934700,19.051934814453126,0.024090886116027832,-0.07138442993164062,-3.2529163360595703
1712834903719934700,19.071934814453126,0.8886764049530029,-2.7224206924438477,-3.742978096008301
1712834903739934700,19.091934814453126,-0.8414138555526733,-2.5540575981140137,-3.8081870079040527
1712834903759934700,19.111934814453125,-0.7947932481765747,-2.3341240882873535,-3.452106475830078
1712834903779934700,19.131934814453125,1.1103918552398682,1.4124269485473633,-3.193080425262451
1712834903799934700,19.151934814453124,1.0677521228790283,-3.1105284690856934,-4.568682670593262
1712834903819934700,19.171934814453124,0.7529544830322266,-2.898798942565918,-4.407463550567627
1712834903839934700,19.191934814453123,-4.751565933227539,-0.37936878204345703,0.31908559799194336
1712834903859934700,19.211934814453127,-5.952966690063477,0.5961823463439941,6.767602443695068
1712834903879934700,19.231934814453126,-4.8169474601745605,-2.7211127281188965,9.464106559753418
1712834903899934700,19.251934814453126,-5.717006683349609,-3.0982747077941895,9.892107009887695
1712834903919934700,19.271934814453125,-7.286550521850586,0.4773979187011719,10.259714126586914
1712834903939934700,19.291934814453125,-7.552133560180664,2.161457061767578,6.356039047241211
1712834903959934700,19.311934814453124,-7.320512771606445,-3.447080135345459,1.1636390686035156
1712834903979934700,19.331934814453124,-7.029359817504883,-3.555427074432373,1.1645708084106445
1712834903999934700,19.351934814453124,-3.0489377975463867,3.7616100311279297,3.436741828918457
1712834904019935000,19.37193505859375,9.386883735656738,10.701769828796387,9.475007057189941
1712834904039935000,19.39193505859375,8.485431671142578,5.107355117797852,6.489571571350098
1712834904059935000,19.41193505859375,8.760791778564453,5.167194366455078,6.718926429748535
1712834904079935000,19.43193505859375,6.23327112197876,8.061949729919434,5.173953056335449
1712834904099935000,19.45193505859375,6.156806945800781,5.349625587463379,21.369625091552734
1712834904119934700,19.471934814453125,6.513219833374023,5.189857482910156,21.19590187072754
1712834904139934700,19.491934814453124,3.025495767593384,7.279401779174805,14.421529769897461
1712834904159934700,19.511934814453124,0.5588197112083435,7.911043167114258,5.259251117706299
1712834904179934700,19.531934814453123,-0.6381727457046509,4.482724189758301,2.8613181114196777
1712834904199934700,19.551934814453126,-2.092731237411499,3.0612945556640625,3.190664768218994
1712834904219934700,19.571934814453126,-2.178723096847534,2.944185256958008,2.85427188873291
1712834904239934700,19.591934814453126,-3.3108630180358887,1.0457000732421875,3.600299835205078
1712834904259934700,19.611934814453125,0.0954211950302124,-0.13581180572509766,3.349004030227661
1712834904279934700,19.631934814453125,0.6921272277832031,0.2279653549194336,4.164938449859619
1712834904299934700,19.651934814453124,0.11565792560577393,1.303248405456543,2.995253801345825
1712834904319934700,19.671934814453124,-1.1293338537216187,0.6776618957519531,-0.9386608600616455
1712834904339934700,19.691934814453123,-0.6796989440917969,0.11730575561523438,-4.258520126342773
1712834904359934700,19.711934814453127,-1.7790733575820923,-1.8846101760864258,-5.066652297973633
1712834904379934700,19.731934814453126,-0.1572641134262085,-3.282209873199463,-6.877970218658447
1712834904399934700,19.751934814453126,3.9613871574401855,-0.864567756652832,-5.505228042602539
1712834904419934700,19.771934814453125,3.977309465408325,-0.7534685134887695,-5.077542781829834
1712834904439934700,19.791934814453125,0.562058687210083,-3.3748250007629395,-7.050608158111572
1712834904459934700,19.811934814453124,-0.09693515300750732,-2.05875301361084,-6.541939735412598
1712834904479934700,19.831934814453124,-0.021138429641723633,-1.8787250518798828,-6.107508659362793
1712834904499934700,19.851934814453124,0.18399202823638916,-0.7809686660766602,-2.4825611114501953
1712834904519935000,19.87193505859375,1.2908267974853516,-1.4513187408447266,-1.9010367393493652
1712834904539935000,19.89193505859375,1.2882765531539917,-1.1883974075317383,-1.4868197441101074
1712834904559935000,19.91193505859375,-0.40773510932922363,-1.7286763191223145,-0.46560192108154297
1712834904579935000,19.93193505859375,-0.3432917594909668,-1.4553794860839844,-0.1020040512084961
1712834904599935000,19.95193505859375,-0.21405017375946045,0.06877517700195312,0.9042587280273438
1712834904619935000,19.97193505859375,0.49247753620147705,-0.06150674819946289,0.776341438293457
1712834904639935000,19.99193505859375,0.8975182175636292,-0.7851834297180176,0.5351848602294922
1712834904659935000,20.01193505859375,1.081580638885498,-0.48756980895996094,0.8161263465881348
1712834904679935000,20.03193505859375,1.5126941204071045,1.016622543334961,0.6366472244262695
1712834904699934500,20.0519345703125,1.8953087329864502,1.2593865394592285,-0.9743547439575195
1712834904719934200,20.071934326171874,1.1215990781784058,1.3070125579833984,-2.067803382873535
1712834904739934200,20.091934326171874,0.9306979775428772,1.1517858505249023,-1.300938606262207
1712834904759934200,20.111934326171873,0.4365077018737793,1.278066635131836,-1.2674369812011719
1712834904779934200,20.131934326171876,-0.042296409606933594,0.3891572952270508,0.8633213043212891
1712834904799934700,20.151934814453124,-9.025275230407715,0.904747486114502,4.85940408706665
1712834904819934500,20.1719345703125,-6.505542278289795,1.401651382446289,11.120121955871582
1712834904839934500,20.1919345703125,-7.087462425231934,1.0276107788085938,10.533024787902832
1712834904859934500,20.2119345703125,-6.273171424865723,0.4169483184814453,10.338592529296875
1712834904879934500,20.2319345703125,-7.434883117675781,4.0858588218688965,9.623956680297852
1712834904899934500,20.2519345703125,-3.646798610687256,1.1761631965637207,4.882958889007568
1712834904919935200,20.271935302734374,-1.4561436176300049,4.200395584106445,3.9707770347595215
1712834904939935200,20.291935302734377,-1.4494726657867432,4.0612592697143555,3.7861976623535156
1712834904959935200,20.311935302734376,4.916460037231445,4.964000701904297,8.040916442871094
1712834904979935200,20.331935302734376,6.311145305633545,4.528600215911865,10.171619415283203
1712834904999935700,20.351935791015624,6.49437952041626,4.447033882141113,10.194761276245117
1712834905019936000,20.37193603515625,-0.618786096572876,11.858863830566406,21.993017196655273
1712834905039936300,20.391936279296875,0.622732400894165,12.964197158813477,10.563352584838867
1712834905059936300,20.411936279296874,0.08888125419616699,9.396458625793457,4.086158752441406
1712834905079936300,20.431936279296874,0.3972659111022949,9.238798141479492,3.9774043560028076
1712834905099936300,20.451936279296874,-3.2274746894836426,4.534634590148926,2.926638126373291
1712834905119936000,20.47193603515625,-3.343857765197754,3.0170888900756836,1.3118553161621094
1712834905139936000,20.49193603515625,-2.3741509914398193,1.479569435119629,0.7012214660644531
1712834905159936000,20.51193603515625,-1.5560966730117798,-0.27596282958984375,2.0254592895507812
1712834905179936000,20.53193603515625,-0.5769035816192627,-0.33522701263427734,4.163629531860352
1712834905199936000,20.55193603515625,-0.6248247623443604,-0.44893932342529297,3.825608968734741
1712834905219935700,20.571935791015626,0.1018681526184082,0.0919036865234375,4.3354034423828125
1712834905239936000,20.59193603515625,-0.6377822160720825,1.3056516647338867,2.6815290451049805
1712834905259936000,20.61193603515625,-0.8181518316268921,1.1986207962036133,-0.5596456527709961
1712834905279936000,20.63193603515625,-0.7726536989212036,1.1847915649414062,-0.5760400295257568
1712834905299936500,20.6519365234375,-2.086371660232544,-0.6323995590209961,-1.8289999961853027
1712834905319936500,20.6719365234375,2.673957347869873,-1.695174217224121,-4.557977199554443
1712834905339936500,20.6919365234375,1.4454079866409302,-4.879762172698975,-7.105957508087158
1712834905359936500,20.7119365234375,1.5312036275863647,-4.744743824005127,-6.680437088012695
1712834905379936500,20.7319365234375,-0.7744669318199158,-3.0557470321655273,-6.443002700805664
1712834905399936000,20.75193603515625,-0.6096876263618469,-2.874819755554199,-5.997475624084473
1712834905419936300,20.771936279296874,-0.12511110305786133,-2.038419723510742,-4.183588027954102
1712834905439936300,20.791936279296873,0.6908501386642456,-1.6798052787780762,-2.8661985397338867
1712834905459936300,20.811936279296877,0.7121785879135132,-1.5330166816711426,-2.2069435119628906
1712834905479936300,20.831936279296876,0.8643685579299927,-1.2829670906066895,-1.8455429077148438
1712834905499936300,20.851936279296876,0.4869869351387024,-1.9835457801818848,-1.4047751426696777
1712834905519935700,20.871935791015623,0.5931403636932373,-1.068514347076416,-0.6725683212280273
1712834905539935700,20.891935791015626,-0.029430240392684937,-0.5313878059387207,-0.7559223175048828
1712834905559935700,20.911935791015626,0.2614156901836395,-0.3564119338989258,-1.2034521102905273
1712834905579935700,20.931935791015626,-0.03956088423728943,0.1437830924987793,-1.9540314674377441
1712834905599935200,20.951935302734373,-2.206364154815674,0.870091438293457,-2.8267822265625
1712834905619935000,20.97193505859375,-4.347879886627197,0.5418491363525391,-0.26007747650146484
1712834905639934700,20.991934814453124,-4.993236064910889,0.1385202407836914,6.227053165435791
1712834905659934700,21.011934814453124,-4.1734232902526855,0.1819601058959961,11.041102409362793
1712834905679934700,21.031934814453123,-3.563053607940674,4.797611236572266,15.262121200561523
1712834905699934700,21.051934814453126,-5.085359573364258,4.883846759796143,11.064105987548828
1712834905719934700,21.071934814453126,-5.436457633972168,-3.276434898376465,5.671162128448486
1712834905739934700,21.091934814453126,-5.290057182312012,-3.3678841590881348,5.635554313659668
1712834905759934700,21.111934814453125,-4.933980941772461,1.7968640327453613,4.511293888092041
1712834905779934700,21.131934814453125,-1.0072863101959229,3.8504490852355957,5.799266815185547
1712834905799934700,21.151934814453124,4.064793586730957,5.415994644165039,5.530689239501953
1712834905819934700,21.171934814453124,4.108887672424316,5.410891056060791,5.544155120849609
1712834905839934500,21.1919345703125,10.793506622314453,8.997957229614258,14.662096977233887
1712834905859934500,21.2119345703125,11.197477340698242,8.869974136352539,14.65384292602539
1712834905879934500,21.2319345703125,-1.1635773181915283,12.854865074157715,7.836234092712402
1712834905899934500,21.2519345703125,1.1923869848251343,8.550169944763184,3.216611385345459
1712834905919934700,21.271934814453125,1.2144283056259155,6.088839530944824,4.756036758422852
1712834905939934700,21.291934814453125,-1.0423284769058228,4.089876174926758,5.648077011108398
1712834905959934700,21.311934814453124,-2.001382827758789,1.995528221130371,3.9172914028167725
1712834905979934700,21.331934814453124,-2.024341106414795,1.3924980163574219,3.799384117126465
1712834905999934700,21.351934814453124,-2.0308122634887695,1.262660026550293,3.5302600860595703
1712834906019935000,21.37193505859375,-1.096847414970398,0.24140644073486328,3.9999234676361084
1712834906039935000,21.39193505859375,0.7384750843048096,-0.2191476821899414,4.545917510986328
1712834906059935000,21.41193505859375,0.15990042686462402,1.4971179962158203,3.7413954734802246
1712834906079935000,21.43193505859375,0.2559131383895874,1.460073471069336,3.6782801151275635
1712834906099935000,21.45193505859375,-1.0182684659957886,1.2030868530273438,-0.4566173553466797
1712834906119934700,21.471934814453125,-0.6111171841621399,-1.2845582962036133,-3.3638341426849365
1712834906139934700,21.491934814453124,1.7691614627838135,-1.5699682235717773,-1.7952830791473389
1712834906159934700,21.511934814453124,1.886427879333496,-1.508570671081543,-1.6234681606292725
1712834906179934700,21.531934814453123,3.5784807205200195,-1.7438020706176758,-3.7004942893981934
1712834906199934700,21.551934814453126,3.7151095867156982,-1.517350196838379,-3.2343506813049316
1712834906219934700,21.571934814453126,2.264315128326416,-0.12516403198242188,-4.777157306671143
1712834906239934700,21.591934814453126,1.0142484903335571,-1.5490365028381348,-3.9890856742858887
1712834906259934700,21.611934814453125,1.0037678480148315,-1.2678308486938477,-3.593942642211914
1712834906279934700,21.631934814453125,-0.9472390413284302,-2.5347580909729004,-3.224292278289795
1712834906299934700,21.651934814453124,-1.5087370872497559,-2.120114803314209,-1.6793756484985352
1712834906319934700,21.671934814453124,-0.6399019956588745,-0.025707244873046875,0.7863326072692871
1712834906339934700,21.691934814453123,-0.25964272022247314,-0.09876775741577148,0.6937375068664551
1712834906359934700,21.711934814453127,-0.11490505933761597,-0.7459802627563477,-0.6391768455505371
1712834906379934700,21.731934814453126,-0.2906320095062256,0.22086668014526367,-0.40086889266967773
1712834906399934700,21.751934814453126,-1.6160900592803955,-0.22513771057128906,1.1679306030273438
1712834906419934700,21.771934814453125,-1.6858859062194824,0.21829795837402344,4.162299156188965
1712834906439934700,21.791934814453125,-2.5203874111175537,1.4812235832214355,6.600825786590576
1712834906459934700,21.811934814453124,-2.9924495220184326,1.363398551940918,6.334752559661865
1712834906479934700,21.831934814453124,-3.196101188659668,2.2611141204833984,11.632648468017578
1712834906499934700,21.851934814453124,-3.422595739364624,2.0587944984436035,11.326446533203125
1712834906519935000,21.87193505859375,-6.119509696960449,1.228104591369629,5.273019313812256
1712834906539935000,21.89193505859375,-6.669373989105225,-0.9652695655822754,5.8071746826171875
1712834906559935000,21.91193505859375,-3.7656548023223877,-1.5582451820373535,4.271130561828613
1712834906579935000,21.93193505859375,-1.5838706493377686,1.1598186492919922,3.181018829345703
1712834906599935000,21.95193505859375,1.7863178253173828,4.505771160125732,5.513252258300781
1712834906619934700,21.971934814453125,5.716139316558838,7.949135780334473,7.806548595428467
1712834906639934700,21.991934814453124,6.732662200927734,8.85283088684082,7.753327369689941
1712834906659934700,22.011934814453124,6.294703960418701,10.80176830291748,10.32663345336914
1712834906679934700,22.031934814453123,3.7464780807495117,8.60625171661377,13.590438842773438
1712834906699934700,22.051934814453126,2.5803396701812744,8.223701477050781,12.851856231689453
1712834906719934700,22.071934814453126,1.9116300344467163,7.956158638000488,9.179969787597656
1712834906739934700,22.091934814453126,2.2685205936431885,7.686767578125,8.867030143737793
1712834906759934700,22.111934814453125,0.9697834253311157,6.245218276977539,5.5334248542785645
1712834906779934700,22.131934814453125,-1.803840160369873,4.442532539367676,2.38723087310791
1712834906799934700,22.151934814453124,-1.80818510055542,4.223908424377441,1.9766883850097656
1712834906819934700,22.171934814453124,-3.205859661102295,3.4214048385620117,2.4538421630859375
1712834906839934700,22.191934814453123,-2.609623908996582,1.6397504806518555,2.976123571395874
1712834906859934700,22.211934814453127,0.2865633964538574,0.3806648254394531,3.375319719314575
1712834906879934700,22.231934814453126,2.216038942337036,0.6345443725585938,3.910229206085205
1712834906899934700,22.251934814453126,-0.188978374004364,2.792072296142578,1.1895142793655396
1712834906919934700,22.271934814453125,-1.668283224105835,2.013178825378418,-2.365297555923462
1712834906939934700,22.291934814453125,-1.7517167329788208,1.9923591613769531,-2.468003034591675
1712834906959934700,22.311934814453124,0.3518921136856079,-4.117198944091797,-6.101002216339111
1712834906979934700,22.331934814453124,2.9675369262695312,-2.5945396423339844,-4.592477321624756
1712834906999934700,22.351934814453124,2.8819518089294434,-2.524831771850586,-4.403426170349121
1712834907019935000,22.37193505859375,2.0557823181152344,-2.7478675842285156,-3.509943723678589
1712834907039935000,22.39193505859375,0.9661211967468262,-3.1278719902038574,-4.44429874420166
1712834907059935000,22.41193505859375,0.2487555742263794,-2.7740254402160645,-5.104311943054199
1712834907079935000,22.43193505859375,0.4980447292327881,-0.4002723693847656,-3.2128520011901855
1712834907099935000,22.45193505859375,0.577271580696106,-0.1641225814819336,-2.770801544189453
1712834907119934700,22.471934814453125,1.8226507902145386,-1.3378181457519531,-1.6354613304138184
1712834907139934700,22.491934814453124,1.431703805923462,-1.2404017448425293,-1.2345004081726074
1712834907159934700,22.511934814453124,1.2167606353759766,-1.0949311256408691,-0.7215886116027832
1712834907179934700,22.531934814453123,0.2965405583381653,-1.1748604774475098,-0.21190452575683594
1712834907199934700,22.551934814453126,0.3826625347137451,-0.9404630661010742,0.05849456787109375
1712834907219934700,22.571934814453126,1.952822208404541,0.16087865829467773,1.5782508850097656
1712834907239934700,22.591934814453126,2.021904706954956,0.4116344451904297,1.8253726959228516
1712834907259934700,22.611934814453125,1.03879714012146,0.07276010513305664,-0.8414177894592285
1712834907279934700,22.631934814453125,0.9702268838882446,0.29618310928344727,-0.6613860130310059
1712834907299934700,22.651934814453124,1.458408236503601,-0.37207984924316406,-0.24701642990112305
1712834907319934700,22.671934814453124,0.9910794496536255,-0.6686153411865234,-0.636012077331543
1712834907339934700,22.691934814453123,0.21967732906341553,-0.17987728118896484,-1.5620322227478027
1712834907359934700,22.711934814453127,-4.27988338470459,-0.8257179260253906,3.657810688018799
1712834907379934700,22.731934814453126,-4.821865558624268,-1.0338611602783203,3.3265480995178223
1712834907399934700,22.751934814453126,-5.147934913635254,-1.8787660598754883,5.654589653015137
1712834907419934700,22.771934814453125,-7.467153549194336,-1.63425874710083,7.819881916046143
1712834907439934700,22.791934814453125,-6.622403144836426,5.033982276916504,12.36090087890625
1712834907459934700,22.811934814453124,-3.701284408569336,0.0049304962158203125,7.526943206787109
1712834907479934700,22.831934814453124,-3.498724937438965,-0.18781757354736328,7.390850067138672
1712834907499934700,22.851934814453124,-0.5593001842498779,3.439042568206787,4.231752872467041
1712834907519935000,22.87193505859375,-0.3334627151489258,3.3633313179016113,4.249412536621094
1712834907539935000,22.89193505859375,2.7301816940307617,6.163915634155273,4.629881858825684
1712834907559935000,22.91193505859375,7.312440872192383,6.804274559020996,7.299879550933838
1712834907579935000,22.93193505859375,7.556332588195801,6.75634765625,7.340053081512451
1712834907599935000,22.95193505859375,8.218867301940918,6.36417818069458,14.590872764587402
1712834907619934700,22.971934814453125,4.766467094421387,6.51906681060791,18.725902557373047
1712834907639934700,22.991934814453124,4.26123571395874,8.178230285644531,12.397071838378906
1712834907659934700,23.011934814453124,0.8647096157073975,6.337302207946777,4.179926872253418
1712834907679934700,23.031934814453123,0.37219858169555664,3.8634204864501953,3.1488170623779297
1712834907699934700,23.051934814453126,0.3423379063606262,3.7193241119384766,2.84891414642334
1712834907719934700,23.071934814453126,0.6361827850341797,1.3748054504394531,3.0258169174194336
1712834907739934700,23.091934814453126,1.0520291328430176,0.9358463287353516,3.8614869117736816
1712834907759934700,23.111934814453125,0.9701141119003296,0.8555116653442383,3.627751111984253
1712834907779934700,23.131934814453125,1.5230040550231934,1.6762332916259766,3.274174213409424
1712834907799934700,23.151934814453124,-0.105368971824646,1.7947044372558594,0.7996859550476074
1712834907819934700,23.171934814453124,0.13765549659729004,1.024515151977539,-1.4184942245483398
1712834907839934700,23.191934814453123,1.1398097276687622,-0.013212203979492188,-1.8030245304107666
1712834907859934700,23.211934814453127,1.0822288990020752,-0.016173362731933594,-1.836061716079712
1712834907879934700,23.231934814453126,-1.2392024993896484,-1.2710185050964355,-1.8887214660644531
1712834907899934700,23.251934814453126,-0.43426764011383057,-3.376255989074707,-3.349351406097412
1712834907919934700,23.271934814453125,-0.4446355104446411,-3.3363161087036133,-3.234005928039551
1712834907939934700,23.291934814453125,2.3697943687438965,-3.4788050651550293,-2.6031906604766846
1712834907959934700,23.311934814453124,1.552655816078186,-4.3584980964660645,-4.159804344177246
1712834907979934700,23.331934814453124,1.6190553903579712,-4.175923824310303,-3.7250866889953613
1712834907999934700,23.351934814453124,0.14258038997650146,-1.3402304649353027,-3.1122865676879883
1712834908019935000,23.37193505859375,0.9536859393119812,-1.2427277565002441,-2.6980338096618652
1712834908039935000,23.39193505859375,1.9359577894210815,-0.8285317420959473,-2.3121962547302246
1712834908059935000,23.41193505859375,2.1224169731140137,-0.5427956581115723,-1.889594554901123
1712834908079935000,23.43193505859375,1.4887804985046387,-1.0741267204284668,-1.9736905097961426
1712834908099935000,23.45193505859375,0.981520414352417,-1.3341784477233887,-1.031355857849121
1712834908119934700,23.471934814453125,0.8824448585510254,-1.0539617538452148,-0.6153111457824707
1712834908139934700,23.491934814453124,1.0363062620162964,-0.7606525421142578,-0.33464479446411133
1712834908159934700,23.511934814453124,0.4542723298072815,-0.4044661521911621,-1.8516907691955566
1712834908179934700,23.531934814453123,0.06551846861839294,-0.1353302001953125,-1.317063331604004
1712834908199934700,23.551934814453126,-0.17159545421600342,0.10767364501953125,-1.1330008506774902
1712834908219934700,23.571934814453126,-0.05601239204406738,0.4078526496887207,0.018352985382080078
1712834908239934700,23.591934814453126,-0.6440423727035522,0.48145532608032227,0.006694316864013672
1712834908259934700,23.611934814453125,-3.9475040435791016,0.5976605415344238,1.9507231712341309
1712834908279934700,23.631934814453125,-3.2738778591156006,0.1784210205078125,10.739312171936035
1712834908299934700,23.651934814453124,-3.268690586090088,0.9867634773254395,11.97103500366211
1712834908319934700,23.671934814453124,-3.6351940631866455,0.6882491111755371,11.514274597167969
1712834908339934700,23.691934814453123,-4.976484298706055,3.9044904708862305,10.437442779541016
1712834908359934700,23.711934814453127,-5.944300651550293,-1.1670279502868652,4.543854236602783
1712834908379934700,23.731934814453126,-4.796960830688477,-0.8428211212158203,4.037489414215088
1712834908399934700,23.751934814453126,-0.42029905319213867,2.0656328201293945,4.958273410797119
1712834908419934700,23.771934814453125,2.265564203262329,5.36039924621582,6.125083923339844
1712834908439934700,23.791934814453125,5.457876205444336,10.514472961425781,6.952731132507324
1712834908459934700,23.811934814453124,7.411259174346924,10.576183319091797,9.32646656036377
1712834908479934700,23.831934814453124,6.639827728271484,9.30548095703125,16.17236328125
1712834908499934700,23.851934814453124,3.594512701034546,9.027887344360352,17.304841995239258
1712834908519935000,23.87193505859375,4.223925590515137,8.821192741394043,17.19485855102539
1712834908539935000,23.89193505859375,0.25779426097869873,7.768653869628906,4.011874675750732
1712834908559935000,23.91193505859375,0.5481901168823242,7.536282539367676,3.689995288848877
1712834908579935000,23.93193505859375,-0.8251776099205017,3.3981122970581055,2.3182029724121094
1712834908599935000,23.95193505859375,-0.8845851421356201,3.206271171569824,1.9621753692626953
1712834908619934700,23.971934814453125,-1.6420412063598633,2.4895286560058594,2.3002676963806152
1712834908639934700,23.991934814453124,1.7098667621612549,0.9999818801879883,4.625514030456543
1712834908659934700,24.011934814453124,1.9962785243988037,1.4069366455078125,5.420616626739502
1712834908679934700,24.031934814453123,1.9417078495025635,1.3171234130859375,5.171778202056885
1712834908699934700,24.051934814453126,-0.8807304501533508,1.675912857055664,0.5332722663879395
1712834908719934700,24.071934814453126,-0.04061931371688843,0.6614503860473633,-1.3790380954742432
1712834908739934700,24.091934814453126,0.5521495938301086,1.0851526260375977,-1.681126356124878
1712834908759934700,24.111934814453125,0.18183618783950806,-0.42624568939208984,-1.2680842876434326
1712834908779934700,24.131934814453125,4.237837314605713,-1.2614774703979492,-2.5747995376586914
1712834908799934700,24.151934814453124,4.157116889953613,-1.232961654663086,-2.5145840644836426
1712834908819934700,24.171934814453124,4.845776081085205,-1.5943737030029297,-1.3263053894042969
1712834908839934700,24.191934814453123,2.1042895317077637,-2.3791394233703613,-1.0772786140441895
1712834908859934700,24.211934814453127,0.5159763097763062,-1.2113113403320312,-2.7695369720458984
1712834908879934700,24.231934814453126,0.20387351512908936,-2.3082680702209473,-2.7675209045410156
1712834908899934700,24.251934814453126,-0.5281951427459717,-2.3731303215026855,-2.8525543212890625
1712834908919934700,24.271934814453125,-0.9708912372589111,-2.720308303833008,-2.691908359527588
1712834908939934700,24.291934814453125,-0.8203707933425903,-2.5170507431030273,-2.2754316329956055
1712834908959934700,24.311934814453124,-0.703822672367096,-3.2000060081481934,-3.805777072906494
1712834908979934700,24.331934814453124,-0.49289166927337646,-2.956149101257324,-3.4099979400634766
1712834908999934700,24.351934814453124,-1.0774261951446533,-3.2907166481018066,-3.8917317390441895
1712834909019935000,24.37193505859375,-0.9194509983062744,-0.556394100189209,-3.2914185523986816
1712834909039935000,24.39193505859375,-0.8114356398582458,1.942495346069336,-2.950953483581543
1712834909059935000,24.41193505859375,0.0013093352317810059,0.05478954315185547,-0.9723610877990723
1712834909079935000,24.43193505859375,-3.2720513343811035,0.8666605949401855,3.7402641773223877
1712834909099935000,24.45193505859375,-2.020453691482544,1.5150165557861328,9.318273544311523
1712834909119934700,24.471934814453125,-0.45693910121917725,-1.0821666717529297,9.32271671295166
1712834909139934700,24.491934814453124,-0.7894719839096069,-1.2008638381958008,9.079863548278809
1712834909159934700,24.511934814453124,-6.002871513366699,4.168521881103516,10.386712074279785
1712834909179934700,24.531934814453123,-6.545635223388672,1.063054084777832,8.121545791625977
1712834909199934700,24.551934814453126,-6.427346229553223,0.943239688873291,8.016940116882324
1712834909219934700,24.571934814453126,-5.684694290161133,-2.7771172523498535,5.164491176605225
1712834909239934700,24.591934814453126,0.3002357482910156,3.4864554405212402,4.137242794036865
1712834909259934700,24.611934814453125,3.8540151119232178,5.991668224334717,4.561254501342773
1712834909279934700,24.631934814453125,7.199343681335449,7.96218729019165,6.105136871337891
1712834909299934700,24.651934814453124,9.884123802185059,9.142133712768555,10.719297409057617
1712834909319934700,24.671934814453124,7.7787017822265625,7.516209602355957,16.59703826904297
1712834909339934700,24.691934814453123,3.3500914573669434,9.083948135375977,15.626956939697266
1712834909359934700,24.711934814453127,1.7421398162841797,9.210359573364258,8.162328720092773
1712834909379934700,24.731934814453126,0.9101788401603699,7.018735885620117,4.937012195587158
1712834909399934700,24.751934814453126,0.4733154773712158,5.2755632400512695,4.648948669433594
1712834909419934700,24.771934814453125,-0.18871495127677917,3.871793746948242,4.231880187988281
1712834909439934700,24.791934814453125,-0.3314598798751831,2.574519157409668,4.0453925132751465
1712834909459934700,24.811934814453124,-0.1133490800857544,2.1908950805664062,3.642530918121338
1712834909479934700,24.831934814453124,-0.44647157192230225,1.7709970474243164,3.070955276489258
1712834909499934700,24.851934814453124,-0.9217740893363953,1.1311254501342773,2.898855209350586
1712834909519935000,24.87193505859375,-1.4934139251708984,0.8375234603881836,1.4102455377578735
1712834909539935000,24.89193505859375,-1.1445955038070679,0.4313087463378906,-0.032096147537231445
1712834909559935000,24.91193505859375,0.45247310400009155,-0.6953849792480469,-0.46203088760375977
1712834909579935000,24.93193505859375,1.119995355606079,-1.9581618309020996,-0.926663875579834
1712834909599935000,24.95193505859375,1.128711462020874,-1.9622902870178223,-0.9382848739624023
1712834909619934700,24.971934814453125,1.4290544986724854,-0.8025455474853516,-2.3513031005859375
1712834909639934700,24.991934814453124,2.602898359298706,-0.20738887786865234,-1.7667086124420166
1712834909659934700,25.011934814453124,0.8460165858268738,-1.1414413452148438,-1.7459957599639893
1712834909679934700,25.031934814453123,0.9174154996871948,-1.0881681442260742,-1.565657377243042
1712834909699934700,25.051934814453126,2.1330411434173584,-1.1056013107299805,-2.247927665710449
1712834909719934700,25.071934814453126,1.235722303390503,-2.659940719604492,-4.802142143249512
1712834909739934700,25.091934814453126,1.0747021436691284,-3.4482550621032715,-6.082427024841309
1712834909759934700,25.111934814453125,0.10564005374908447,-2.948855400085449,-5.018908977508545
1712834909779934700,25.131934814453125,-0.054650019854307175,-2.0264248847961426,-4.065077304840088
1712834909799934700,25.151934814453124,0.10293766111135483,-1.7607417106628418,-3.639294147491455
