time,seconds_elapsed,z,y,x
1712834884719064800,0.07106494140625,-0.056352317333221436,-0.05138903856277466,0.0869719386100769
1712834884741065000,0.09306494140625,-0.06001751124858856,-0.016569720581173897,0.07658722996711731
1712834884761065000,0.11306494140625,-0.06979135423898697,0.012751812115311623,0.09002626687288284
1712834884781065000,0.13306494140625,-0.06551529467105865,0.017638733610510826,0.08575020730495453
1712834884801073000,0.153072998046875,-0.05268712714314461,0.010919216088950634,0.10102184116840363
1712834884821073000,0.173072998046875,-0.038026362657547,0.06039930135011673,0.09491318464279175
1712834884841073000,0.193072998046875,0.046273041516542435,0.23266330361366272,0.08452847599983215
1712834884861073000,0.213072998046875,0.05910121276974678,0.420198917388916,0.06436992436647415
1712834884881073000,0.233072998046875,0.015118914656341076,0.4318053722381592,0.09369145333766937
1712834884901073000,0.253072998046875,0.0780380368232727,0.36827537417411804,0.14011721312999725
1712834884921073000,0.273072998046875,0.304669052362442,0.46906813979148865,0.192651629447937
1712834884941073000,0.293072998046875,0.3877467215061188,0.6517168879508972,0.24274258315563202
1712834884961073000,0.313072998046875,1.6394095420837402,1.6877442598342896,0.07597636431455612
1712834884981073000,0.333072998046875,2.0926716327667236,3.232011556625366,-0.3180317282676697
1712834885001073000,0.353072998046875,2.883742094039917,4.922886848449707,-0.47013717889785767
1712834885021073000,0.373072998046875,2.060295820236206,5.403637409210205,-0.32047519087791443
1712834885041073000,0.393072998046875,1.1073459386825562,5.100037574768066,-0.2312888503074646
1712834885061073000,0.413072998046875,1.4592043161392212,3.555159330368042,-0.45058947801589966
1712834885081073000,0.433072998046875,1.9900462627410889,2.067702531814575,-0.3571271002292633
1712834885101073000,0.453072998046875,2.0816760063171387,1.2796863317489624,-0.2526691257953644
1712834885121073000,0.473072998046875,2.1348214149475098,1.086042046546936,-0.2856558561325073
1712834885141073000,0.493072998046875,2.3681719303131104,1.369483470916748,-0.29970577359199524
1712834885161073400,0.513073486328125,2.64611554145813,1.8508453369140625,-0.25389087200164795
1712834885181073400,0.533073486328125,2.8458683490753174,2.368248224258423,-0.2312888503074646
1712834885201073400,0.553073486328125,2.9991955757141113,2.9668960571289062,-0.3070361316204071
1712834885221073400,0.573073486328125,3.0077476501464844,3.4836881160736084,-0.473191499710083
1712834885241073400,0.593073486328125,2.830596923828125,3.644345760345459,-0.6039166450500488
1712834885260935200,0.61293505859375,2.8299858570098877,3.258889675140381,-0.7010442018508911
1712834885280935200,0.63293505859375,2.850755453109741,2.5319600105285645,-0.6839399933815002
1712834885300935400,0.652935302734375,2.818990468978882,1.9003254175186157,-0.5984188914299011
1712834885320935400,0.672935302734375,2.579531192779541,1.6755269765853882,-0.4579198658466339
1712834885340935400,0.692935302734375,2.28326153755188,1.4311809539794922,-0.3155882656574249
1712834885360935400,0.712935302734375,2.1818578243255615,0.9565386176109314,-0.28015807271003723
1712834885380935400,0.732935302734375,2.018756866455078,0.20150917768478394,-0.09934195876121521
1712834885400935200,0.75293505859375,1.8067866563796997,-0.2963460087776184,0.02955060638487339
1712834885420935200,0.77293505859375,1.6815593242645264,-0.6903541088104248,0.17432567477226257
1712834885440935200,0.79293505859375,1.5599970817565918,-0.843681275844574,0.2280818074941635
1712834885460935200,0.81293505859375,1.29549241065979,-0.8772788643836975,0.31238120794296265
1712834885480935200,0.83293505859375,0.9998337030410767,-0.5180900692939758,0.3710242807865143
1712834885500935200,0.85293505859375,0.65958172082901,-0.12041681259870529,0.21464277803897858
1712834885520935200,0.87293505859375,0.22403483092784882,0.401262104511261,-0.0022143865935504436
1712834885540935200,0.89293505859375,-0.1999056488275528,1.0994811058044434,-0.27404943108558655
1712834885560935200,0.91293505859375,-0.6782131195068359,1.7720437049865723,-0.3522401750087738
1712834885580935200,0.93293505859375,-1.0868819952011108,2.1550562381744385,-0.36567920446395874
1712834885600935200,0.95293505859375,-1.2133311033248901,2.525240659713745,-0.6216317415237427
1712834885620935200,0.97293505859375,-1.449125051498413,2.2082014083862305,-0.4689154326915741
1712834885640935200,0.99293505859375,-1.8938349485397339,2.0151681900024414,-0.3070361316204071
1712834885660935400,1.012935302734375,-2.0471620559692383,1.454393744468689,-0.09140071272850037
1712834885680935400,1.032935302734375,-2.2682952880859375,0.725020706653595,0.10163270682096481
1712834885700935400,1.052935302734375,-2.77225923538208,0.41347941756248474,0.22502748668193817
1712834885720935400,1.072935302734375,-3.335476875305176,0.3084105849266052,0.34231361746788025
1712834885740935400,1.092935302734375,-3.730095863342285,0.2332741618156433,0.5774967074394226
1712834885760935200,1.11293505859375,-3.8449385166168213,-0.1308015137910843,0.9745591282844543
1712834885780935200,1.13293505859375,-3.7526979446411133,-0.7960337996482849,1.3783410787582397
1712834885800935400,1.152935302734375,-3.4264957904815674,-1.8290069103240967,1.8132771253585815
1712834885820935400,1.172935302734375,-3.0697505474090576,-3.0318005084991455,2.1608593463897705
1712834885840935400,1.192935302734375,-2.2933409214019775,-4.588285446166992,2.510885238647461
1712834885860935400,1.212935302734375,-1.638493299484253,-5.956012725830078,3.0227901935577393
1712834885880935400,1.232935302734375,-0.5297728776931763,-6.308481693267822,3.013627290725708
1712834885900935200,1.25293505859375,0.3712533414363861,-5.243743419647217,2.6012933254241943
1712834885920935200,1.27293505859375,0.4384485185146332,-3.9914698600769043,2.92138671875
1712834885940935200,1.29293505859375,0.4586070775985718,-2.5095107555389404,4.007504940032959
1712834885960935200,1.31293505859375,0.4665483236312866,-1.9731711149215698,3.873725652694702
1712834885980935200,1.33293505859375,0.660192608833313,-2.058692216873169,3.589062452316284
1712834886000935200,1.35293505859375,0.05665775015950203,-2.653064012527466,3.7075703144073486
1712834886020935200,1.37293505859375,-0.70692378282547,-2.8259389400482178,3.3306663036346436
1712834886040935200,1.39293505859375,-0.926835298538208,-2.8528170585632324,2.446133613586426
1712834886060935200,1.41293505859375,-0.593302845954895,-1.9627864360809326,1.3166437149047852
1712834886080935200,1.43293505859375,0.1837177276611328,0.1679115891456604,0.5988770127296448
1712834886100935200,1.45293505859375,1.2710578441619873,2.50813627243042,-0.2612212598323822
1712834886120935200,1.47293505859375,2.3186917304992676,4.442746639251709,-1.0700068473815918
1712834886140935200,1.49293505859375,2.5648703575134277,4.632114887237549,-0.5971971154212952
1712834886160935400,1.512935302734375,2.563037872314453,3.300428628921509,-1.0040334463119507
1712834886180935400,1.532935302734375,2.247220516204834,3.046919584274292,-1.7065284252166748
1712834886200935400,1.552935302734375,2.023643732070923,2.6773459911346436,-1.9478201866149902
1712834886220935400,1.572935302734375,2.2117903232574463,2.4574344158172607,-1.7505106925964355
1712834886240935400,1.592935302734375,2.200183868408203,1.9632445573806763,-1.3418418169021606
1712834886260935200,1.61293505859375,2.280818223953247,1.6602554321289062,-0.947833776473999
1712834886280935200,1.63293505859375,2.2844831943511963,2.1300108432769775,-0.9215666055679321
1712834886300935400,1.652935302734375,1.9680551290512085,3.2992067337036133,-1.0400744676589966
1712834886320935400,1.672935302734375,1.4280502796173096,4.234441757202148,-1.412702202796936
1712834886340935400,1.692935302734375,0.6766859889030457,4.987027645111084,-1.620396375656128
1712834886360935400,1.712935302734375,0.2545780837535858,5.389587879180908,-1.630170226097107
1712834886380935400,1.732935302734375,0.1745547503232956,4.79277229309082,-1.4157565832138062
1712834886400935200,1.75293505859375,-0.21090123057365417,4.158694267272949,-0.7028768062591553
1712834886420935200,1.77293505859375,-1.1937834024429321,4.3462300300598145,-0.7456374168395996
1712834886440935200,1.79293505859375,-2.3825271129608154,4.392655849456787,-1.183627724647522
1712834886460935200,1.81293505859375,-2.9188668727874756,3.300428628921509,-0.7230353951454163
1712834886480935200,1.83293505859375,-2.917645215988159,1.5393040180206299,0.04421137273311615
1712834886500935200,1.85293505859375,-2.9359710216522217,0.3450624942779541,0.47303876280784607
1712834886520935200,1.87293505859375,-2.9500210285186768,-0.2267073690891266,0.6605743765830994
1712834886540935200,1.89293505859375,-2.8968756198883057,-0.5865070223808289,0.7919104099273682
1712834886560935200,1.91293505859375,-2.858391284942627,-0.7636579275131226,1.0167088508605957
1712834886580935200,1.93293505859375,-2.746602773666382,-0.8870527148246765,1.349630355834961
1712834886600935200,1.95293505859375,-2.5608997344970703,-1.119181513786316,1.6807193756103516
1712834886620935200,1.97293505859375,-2.384359836578369,-1.557782769203186,1.915291666984558
1712834886640935200,1.99293505859375,-2.0893118381500244,-2.3476314544677734,2.340453863143921
1712834886660935400,2.012935302734375,-1.5664112567901611,-3.3751068115234375,2.792494058609009
1712834886680935400,2.032935302734375,-0.8272642493247986,-4.171064376831055,2.8383090496063232
1712834886700935400,2.052935302734375,-0.14004085958003998,-5.056818962097168,2.843195915222168
1712834886720935400,2.072935302734375,0.5520694851875305,-5.629810333251953,3.111365795135498
1712834886740935400,2.092935302734375,1.0651962757110596,-5.317047595977783,2.9702558517456055
1712834886760935200,2.11293505859375,0.9570731520652771,-4.7874274253845215,3.1015918254852295
1712834886780935200,2.13293505859375,0.915534257888794,-3.8027124404907227,3.6599228382110596
1712834886800935400,2.152935302734375,0.37858372926712036,-2.789897918701172,3.1608457565307617
1712834886820935400,2.172935302734375,-0.023365596309304237,-1.7404314279556274,3.091207265853882
1712834886840935400,2.192935302734375,-0.622013509273529,-1.5461763143539429,3.3190598487854004
1712834886860935400,2.212935302734375,-1.0771081447601318,-2.546773672103882,2.9922471046447754
1712834886880935400,2.232935302734375,-1.21027672290802,-2.754467725753784,1.789453387260437
1712834886900935200,2.25293505859375,-0.917672336101532,-1.1344531774520874,0.8163450360298157
1712834886920935200,2.27293505859375,0.38957929611206055,0.7671703696250916,0.20486892759799957
1712834886940935200,2.29293505859375,1.9576704502105713,2.5344035625457764,-0.5538256764411926
1712834886960935200,2.31293505859375,2.45369291305542,4.191680908203125,-0.6808856725692749
1712834886980935200,2.33293505859375,2.4384212493896484,5.112255096435547,-0.9979247450828552
1712834887000935200,2.35293505859375,2.7169759273529053,5.719454765319824,-1.6619352102279663
1712834887020935200,2.37293505859375,2.604576587677002,5.291849136352539,-2.3387739658355713
1712834887040935200,2.39293505859375,2.2734878063201904,4.406705379486084,-2.539137840270996
1712834887060935200,2.41293505859375,2.19163179397583,3.295541524887085,-2.3650412559509277
1712834887080935200,2.43293505859375,2.420095443725586,2.474538803100586,-2.1555144786834717
1712834887100935200,2.45293505859375,2.2905919551849365,2.0457112789154053,-1.973476529121399
1712834887120935200,2.47293505859375,1.7951802015304565,2.542344808578491,-2.050445556640625
1712834887140935200,2.49293505859375,1.3632985353469849,3.5453855991363525,-1.8965075016021729
1712834887160935400,2.512935302734375,1.2533427476882935,3.47696852684021,-1.688813328742981
1712834887180935400,2.532935302734375,1.2863295078277588,3.1935272216796875,-1.4652366638183594
1712834887200935400,2.552935302734375,0.6937901973724365,3.828216075897217,-1.489671230316162
1712834887220935400,2.572935302734375,-1.062447428703308,5.754274368286133,-2.4817163944244385
1712834887240935400,2.592935302734375,-2.314110279083252,5.174562931060791,-1.5519795417785645
1712834887260935200,2.61293505859375,-2.1320724487304688,2.801351547241211,-0.23312145471572876
1712834887280935200,2.63293505859375,-2.5474607944488525,0.9412670135498047,-0.024205535650253296
1712834887300935400,2.652935302734375,-2.822350263595581,-0.06849326193332672,0.21464277803897858
1712834887320935400,2.672935302734375,-2.669023036956787,-0.6176611185073853,0.49502992630004883
1712834887340935400,2.692935302734375,-2.730720281600952,-0.7153995633125305,0.8041277527809143
1712834887360935400,2.712935302734375,-2.6451992988586426,-0.7160104513168335,1.2543354034423828
1712834887380935400,2.732935302734375,-2.634814500808716,-0.7288386225700378,1.578704833984375
1712834887400935200,2.75293505859375,-2.7343854904174805,-0.8406269550323486,1.7625752687454224
1712834887420935200,2.77293505859375,-2.8021914958953857,-1.358029842376709,2.0747275352478027
1712834887440935200,2.79293505859375,-2.716059684753418,-2.125887393951416,2.5267677307128906
1712834887460935200,2.81293505859375,-2.540130376815796,-3.1454215049743652,2.9568169116973877
1712834887480935200,2.83293505859375,-2.1180224418640137,-4.348825931549072,3.1461851596832275
1712834887500935200,2.85293505859375,-1.4039210081100464,-5.547954559326172,3.203606367111206
1712834887520935200,2.87293505859375,-0.6537785530090332,-6.254725456237793,3.611053466796875
1712834887540935200,2.89293505859375,0.4512766897678375,-5.984723091125488,3.469332695007324
1712834887560935200,2.91293505859375,0.8910996913909912,-5.020777702331543,2.927495241165161
1712834887580935200,2.93293505859375,0.6327036619186401,-3.420921802520752,3.44856333732605
1712834887600935200,2.95293505859375,0.5190827250480652,-1.377577543258667,3.8529560565948486
1712834887620935200,2.97293505859375,0.5954409241676331,-0.3928627073764801,3.052111864089966
1712834887640935200,2.99293505859375,0.3962988257408142,-0.607276439666748,3.1803934574127197
1712834887660935400,3.012935302734375,-0.30925053358078003,-2.0544161796569824,3.111365795135498
1712834887680935400,3.032935302734375,-0.7509061098098755,-3.574248790740967,2.5597543716430664
1712834887700935400,3.052935302734375,-0.8113817572593689,-3.161303997039795,1.531057357788086
1712834887720935400,3.072935302734375,0.06643159687519073,0.02252565510571003,0.8835402131080627
1712834887740935400,3.092935302734375,1.4567608833312988,1.9870682954788208,-0.18364135921001434
1712834887760935200,3.11293505859375,2.3376286029815674,3.566154956817627,-0.9252317547798157
1712834887780935200,3.13293505859375,2.4976751804351807,4.6870927810668945,-1.0559569597244263
1712834887800935400,3.152935302734375,2.364506721496582,5.241147518157959,-1.4841734170913696
1712834887820935400,3.172935302734375,2.165975332260132,5.501376152038574,-2.0602192878723145
1712834887840935400,3.192935302734375,2.085952043533325,4.7597856521606445,-2.449340581893921
1712834887860935400,3.212935302734375,1.9118554592132568,3.759188413619995,-2.4762187004089355
1712834887880935400,3.232935302734375,1.5673274993896484,3.069521427154541,-2.497598886489868
1712834887900935200,3.25293505859375,1.324813961982727,2.628476858139038,-2.3393847942352295
1712834887920935200,3.27293505859375,1.3022119998931885,2.7048349380493164,-2.1683425903320312
1712834887940935200,3.29293505859375,1.0835222005844116,3.197192430496216,-2.0987038612365723
1712834887960935200,3.31293505859375,0.6919575929641724,3.9509999752044678,-1.9960784912109375
1712834887980935200,3.33293505859375,0.43539419770240784,4.337677955627441,-1.9136117696762085
1712834888000935200,3.35293505859375,0.2295326143503189,3.925954580307007,-1.9325485229492188
1712834888020935200,3.37293505859375,-0.050854530185461044,3.0481412410736084,-1.6533831357955933
1712834888040935200,3.39293505859375,-0.28237244486808777,2.290057420730591,-0.9490554928779602
1712834888060935200,3.41293505859375,-0.7185302376747131,2.957733154296875,-1.0797806978225708
1712834888080935200,3.43293505859375,-1.5951218605041504,3.6382369995117188,-1.176908254623413
1712834888100935200,3.45293505859375,-2.0196731090545654,3.1440470218658447,-0.7212027907371521
1712834888120935200,3.47293505859375,-2.161393880844116,2.572888135910034,-0.4945717751979828
1712834888140935200,3.49293505859375,-2.339766502380371,1.7298940420150757,-0.2215150147676468
1712834888160935400,3.512935302734375,-2.3825271129608154,0.9614255428314209,0.1688278764486313
1712834888180935400,3.532935302734375,-2.369699001312256,0.14897476136684418,0.5212971568107605
1712834888200935400,3.552935302734375,-2.5981626510620117,-0.3281109929084778,0.7943539023399353
1712834888220935400,3.572935302734375,-2.676964282989502,-0.7239516973495483,1.1523209810256958
1712834888240935400,3.592935302734375,-2.6922359466552734,-0.8681158423423767,1.4253777265548706
1712834888260935200,3.61293505859375,-2.8620564937591553,-0.8650615215301514,1.7662404775619507
1712834888280935200,3.63293505859375,-2.8431196212768555,-0.9609673619270325,2.002645254135132
1712834888300935400,3.652935302734375,-2.8400652408599854,-0.8711702227592468,2.167578935623169
1712834888320935400,3.672935302734375,-2.799748182296753,-0.7312820553779602,2.321516990661621
1712834888340935400,3.692935302734375,-2.6054930686950684,-0.7508297562599182,2.4589617252349854
1712834888360935400,3.712935302734375,-2.3800837993621826,-1.1662181615829468,2.7051403522491455
1712834888380935400,3.732935302734375,-2.0037906169891357,-1.7776942253112793,2.9403235912323
1712834888400935200,3.75293505859375,-1.5248724222183228,-2.52539324760437,3.094261646270752
1712834888420935200,3.77293505859375,-1.067945122718811,-3.33967661857605,3.309286117553711
1712834888440935200,3.79293505859375,-0.5047274231910706,-4.3909759521484375,3.6758053302764893
1712834888460935200,3.81293505859375,0.18310685455799103,-5.289558410644531,3.2915709018707275
1712834888480935200,3.83293505859375,0.5593998432159424,-5.396460056304932,3.0209577083587646
1712834888500935200,3.85293505859375,0.737772524356842,-4.481383800506592,3.28424072265625
1712834888520935200,3.87293505859375,0.9356928467750549,-2.6652815341949463,4.0227766036987305
1712834888540935200,3.89293505859375,1.3480268716812134,-1.453324794769287,4.223751544952393
1712834888560935200,3.91293505859375,1.3608551025390625,-1.2853368520736694,3.9830703735351562
1712834888580935200,3.93293505859375,0.8581129312515259,-1.7392096519470215,4.10463285446167
1712834888600935200,3.95293505859375,0.5117523670196533,-3.44046950340271,3.8584539890289307
1712834888620935200,3.97293505859375,0.43539419770240784,-4.086153984069824,3.133967876434326
1712834888640935200,3.99293505859375,0.5111414790153503,-2.1026744842529297,2.446744441986084
1712834888660935400,4.012935302734375,1.9472856521606445,1.3297772407531738,1.1675925254821777
1712834888680935400,4.032935302734375,3.17940092086792,3.960163116455078,0.6080399751663208
1712834888700935400,4.052935302734375,3.332728147506714,6.263124942779541,0.18043431639671326
1712834888720935400,4.072935302734375,3.019965171813965,7.048086643218994,-0.5843689441680908
1712834888740935400,4.092935302734375,2.663219690322876,6.908809661865234,-1.5330426692962646
1712834888760935200,4.11293505859375,2.09389328956604,6.1696624755859375,-2.2385921478271484
1712834888780935200,4.13293505859375,1.6271922588348389,4.81476354598999,-2.3699281215667725
1712834888800935400,4.152935302734375,1.3290899991989136,3.591811180114746,-2.2697460651397705
1712834888820935400,4.172935302734375,1.136056661605835,2.2815053462982178,-2.1964423656463623
1712834888840935400,4.192935302734375,1.012050986289978,1.4012484550476074,-2.195220708847046
1712834888860935400,4.212935302734375,1.0071641206741333,1.229595422744751,-2.13107967376709
1712834888880935400,4.232935302734375,1.09024178981781,1.7298940420150757,-1.8616881370544434
1712834888900935200,4.25293505859375,0.9027060866355896,2.396347999572754,-1.6258941888809204
1712834888920935200,4.27293505859375,0.5832235813140869,2.709110975265503,-1.605124831199646
1712834888940935200,4.29293505859375,0.346818745136261,2.5435664653778076,-1.5275448560714722
1712834888960935200,4.31293505859375,0.6327036619186401,2.3004422187805176,-0.8372671604156494
1712834888980935200,4.33293505859375,0.052381694316864014,3.910072088241577,-1.671098232269287
1712834889000935200,4.35293505859375,-1.5792393684387207,5.457393646240234,-1.9740873575210571
1712834889020935200,4.37293505859375,-1.715462327003479,4.231387138366699,-1.1213195323944092
1712834889040935200,4.39293505859375,-1.3318389654159546,2.3810763359069824,-0.36079227924346924
1712834889060935200,4.41293505859375,-1.6867516040802002,1.037172794342041,-0.263053834438324
1712834889080935200,4.43293505859375,-1.818698525428772,0.38904479146003723,-0.0944550409913063
1712834889100935200,4.45293505859375,-1.8516852855682373,-0.012293662875890732,0.516410231590271
1712834889120935200,4.47293505859375,-2.037999153137207,-0.1955532431602478,1.2036336660385132
1712834889140935200,4.49293505859375,-1.7930421829223633,-0.3739258944988251,1.4650839567184448
1712834889160935400,4.512935302734375,-1.6849191188812256,-0.6402631402015686,1.675221562385559
1712834889180935400,4.532935302734375,-1.6647604703903198,-1.078864336013794,1.9574413299560547
1712834889200935400,4.552935302734375,-1.306793451309204,-1.7043904066085815,2.404594659805298
1712834889220935400,4.572935302734375,-0.43386703729629517,-3.150919198989868,2.781498432159424
1712834889240935400,4.592935302734375,0.35414913296699524,-4.6481499671936035,2.776000738143921
1712834889260935200,4.61293505859375,0.7701483368873596,-5.681734085083008,2.5426502227783203
1712834889280935200,4.63293505859375,1.0370965003967285,-5.563837051391602,2.8474719524383545
1712834889300935400,4.652935302734375,1.4249958992004395,-4.536972522735596,3.4589481353759766
1712834889320935400,4.672935302734375,1.2857186794281006,-2.9896509647369385,3.267136335372925
1712834889340935400,4.692935302734375,0.45921793580055237,-1.9414061307907104,2.7552313804626465
1712834889360935400,4.712935302734375,-0.2041817009449005,-2.1026744842529297,2.687425374984741
1712834889380935400,4.732935302734375,-0.9091202020645142,-3.543705701828003,2.6776514053344727
1712834889400935200,4.75293505859375,-1.0771081447601318,-4.265137672424316,2.0075323581695557
1712834889420935200,4.77293505859375,-0.6250678896903992,-3.1765756607055664,1.151710033416748
1712834889440935200,4.79293505859375,0.012064588256180286,-0.882165789604187,0.848110020160675
1712834889460935200,4.81293505859375,0.8874344825744629,0.8783478736877441,0.34781140089035034
1712834889480935200,4.83293505859375,1.5380059480667114,2.6498570442199707,-0.7621307373046875
1712834889500935200,4.85293505859375,2.216066360473633,4.502000331878662,-0.8537605404853821
1712834889520935200,4.87293505859375,2.6253461837768555,5.257030010223389,-0.9893726110458374
1712834889540935200,4.89293505859375,2.7566821575164795,5.353546619415283,-1.5892423391342163
1712834889560935200,4.91293505859375,2.3907737731933594,4.644331932067871,-2.0748801231384277
1712834889580935200,4.93293505859375,1.9943222999572754,3.298595905303955,-2.1634557247161865
1712834889600935200,4.95293505859375,1.856266736984253,1.6596444845199585,-1.7639497518539429
1712834889620935200,4.97293505859375,1.6467399597167969,0.6883687973022461,-1.3907110691070557
1712834889640935200,4.99293505859375,1.422552466392517,0.7983245253562927,-1.3607786893844604
1712834889660935400,5.012935302734375,1.2796099185943604,2.0261635780334473,-1.231275200843811
1712834889680935400,5.032935302734375,1.0810787677764893,3.04753041267395,-1.195845127105713
1712834889700935400,5.052935302734375,0.6540839672088623,4.064010143280029,-1.0926088094711304
1712834889720935400,5.072935302734375,0.38469240069389343,4.214282989501953,-0.8873581290245056
1712834889740935400,5.092935302734375,0.518471896648407,3.3890039920806885,-1.2893074750900269
1712834889760935200,5.11293505859375,0.24113905429840088,3.30959153175354,-1.7553976774215698
1712834889780935200,5.13293505859375,-0.3000875413417816,3.0854039192199707,-1.5593098402023315
1712834889800935400,5.152935302734375,-1.1204795837402344,2.411008834838867,-1.1298716068267822
1712834889820935400,5.172935302734375,-1.355051875114441,1.14468514919281,-0.9026297330856323
1712834889840935400,5.192935302734375,-1.2060006856918335,-0.30489811301231384,-0.5135086178779602
1712834889860935400,5.212935302734375,-0.07406741380691528,-1.2944997549057007,-0.5880341529846191
1712834889880935400,5.232935302734375,1.0144944190979004,-0.9524152874946594,-0.9887617826461792
1712834889900935200,5.25293505859375,1.4176654815673828,0.1575268805027008,-0.8232172727584839
1712834889920935200,5.27293505859375,1.943009614944458,0.8441393971443176,-0.10239628702402115
1712834889940935200,5.29293505859375,2.3321306705474854,0.3145192563533783,0.3905719518661499
1712834889960935200,5.31293505859375,2.537992477416992,-0.9163742065429688,0.9800569415092468
1712834889980935200,5.33293505859375,1.7744108438491821,-1.4722615480422974,1.351462960243225
1712834890000935200,5.35293505859375,1.792125940322876,-1.5736652612686157,1.6055829524993896
1712834890020935200,5.37293505859375,0.5404630303382874,-1.8192330598831177,1.8920787572860718
1712834890040935200,5.39293505859375,-0.5865833759307861,-2.0269272327423096,2.140089988708496
1712834890060935200,5.41293505859375,-1.3770430088043213,-3.328680992126465,2.1358139514923096
1712834890080935200,5.43293505859375,-2.121076822280884,-4.364097595214844,1.7918968200683594
1712834890100935200,5.45293505859375,-2.8406760692596436,-4.109977722167969,0.45898887515068054
1712834890120935200,5.47293505859375,-2.6891815662384033,-2.1918609142303467,0.515188455581665
1712834890140935200,5.49293505859375,-0.8950703144073486,-1.6616297960281372,1.0057132244110107
1712834890160935400,5.512935302734375,1.2777774333953857,-0.42584943771362305,0.38385245203971863
1712834890180935400,5.532935302734375,0.7457137703895569,3.3688454627990723,-0.8293259143829346
1712834890200935400,5.552935302734375,1.1946996450424194,6.620481014251709,-0.8781951665878296
1712834890220935400,5.572935302734375,1.982105016708374,6.659576416015625,-0.8274933099746704
1712834890240935400,5.592935302734375,1.613753318786621,4.693201541900635,-0.8134434223175049
1712834890260935200,5.61293505859375,1.4347697496414185,2.7720301151275635,-0.9130144715309143
1712834890280935200,5.63293505859375,1.3278683423995972,1.4782174825668335,-1.0791698694229126
1712834890300935400,5.652935302734375,0.6681338548660278,0.9675341844558716,-1.0480157136917114
1712834890320935400,5.672935302734375,0.5435173511505127,1.1385765075683594,-1.1915689706802368
1712834890340935400,5.692935302734375,0.679740309715271,1.3682618141174316,-1.5263231992721558
1712834890360935400,5.712935302734375,0.8171849846839905,2.1245129108428955,-1.7132478952407837
1712834890380935400,5.732935302734375,0.803135097026825,3.0121002197265625,-1.7089718580245972
1712834890400935200,5.75293505859375,0.7939720749855042,2.793410301208496,-1.4389694929122925
1712834890420935200,5.77293505859375,1.6644550561904907,1.2094367742538452,-0.9887617826461792
1712834890440935200,5.79293505859375,1.6626224517822266,0.7488444447517395,-1.6765960454940796
1712834890460935200,5.81293505859375,0.4726569950580597,2.8135690689086914,-2.248976707458496
1712834890480935200,5.83293505859375,-0.44425174593925476,2.176436424255371,-1.4096479415893555
1712834890500935200,5.85293505859375,-0.8193230032920837,1.17950439453125,-0.5458844304084778
1712834890520935200,5.87293505859375,-1.0557278394699097,0.24732406437397003,-0.29909488558769226
1712834890540935200,5.89293505859375,-1.7802140712738037,0.17463110387325287,0.016111571341753006
1712834890560935200,5.91293505859375,-2.2762365341186523,0.2845868468284607,0.44921502470970154
1712834890580935200,5.93293505859375,-2.743548631668091,0.38843393325805664,0.7980191111564636
1712834890600935200,5.95293505859375,-2.9610166549682617,0.5087743997573853,1.0765736103057861
1712834890620935200,5.97293505859375,-3.2096385955810547,0.42325326800346375,1.3923909664154053
1712834890640935200,5.99293505859375,-3.511406183242798,0.24549147486686707,1.6141350269317627
1712834890660935400,6.012935302734375,-3.6415205001831055,-0.21204659342765808,1.9934823513031006
1712834890680935400,6.032935302734375,-3.4607043266296387,-0.891328752040863,2.502943992614746
1712834890700935400,6.052935302734375,-3.4539847373962402,-1.6323082447052002,3.1150310039520264
1712834890720935400,6.072935302734375,-3.399617910385132,-2.71781587600708,3.4870479106903076
1712834890740935400,6.092935302734375,-2.9940032958984375,-3.825925350189209,3.334331512451172
1712834890760935200,6.11293505859375,-2.6641359329223633,-4.863785266876221,3.4613914489746094
1712834890780935200,6.13293505859375,-2.0538816452026367,-5.40989875793457,3.589062452316284
1712834890800935400,6.152935302734375,-1.1064296960830688,-5.579108715057373,3.6745834350585938
1712834890820935400,6.172935302734375,-0.35323283076286316,-5.720218658447266,3.541414976119995
1712834890840935400,6.192935302734375,-0.13576480746269226,-5.7703094482421875,3.348381519317627
1712834890860935400,6.212935302734375,-0.19562959671020508,-5.522909164428711,3.4418437480926514
1712834890880935400,6.232935302734375,-0.11621711403131485,-4.868061542510986,3.426572322845459
1712834890900935200,6.25293505859375,0.012675453908741474,-3.5143840312957764,3.292792797088623
1712834890920935200,6.27293505859375,-0.35262197256088257,-2.0519726276397705,3.2274301052093506
1712834890940935200,6.29293505859375,-0.8663596510887146,-1.78380286693573,3.1162526607513428
1712834890960935200,6.31293505859375,-0.9476047158241272,-2.7550785541534424,2.670931816101074
1712834890980935200,6.33293505859375,-0.7496843934059143,-2.1057288646698,1.9397262334823608
1712834891000935200,6.35293505859375,0.18188512325286865,0.023136520758271217,1.2634984254837036
1712834891020935200,6.37293505859375,1.1580477952957153,1.8496235609054565,0.4822017550468445
1712834891040935200,6.39293505859375,2.037693738937378,3.658395528793335,-0.5904776453971863
1712834891060935200,6.41293505859375,2.308917999267578,5.123250484466553,-1.014418125152588
1712834891080935200,6.43293505859375,2.1281018257141113,5.355989933013916,-0.947833776473999
1712834891100935200,6.45293505859375,1.6937766075134277,4.905782222747803,-1.319239854812622
1712834891120935200,6.47293505859375,1.5080735683441162,3.549661636352539,-1.8042668104171753
1712834891140935200,6.49293505859375,1.5508341789245605,2.3505330085754395,-1.9130008220672607
1712834891160935400,6.512935302734375,1.4329371452331543,1.6694183349609375,-1.7993799448013306
1712834891180935400,6.532935302734375,1.315040111541748,1.344438076019287,-1.7498998641967773
1712834891200935400,6.552935302734375,1.1672108173370361,1.617494821548462,-1.6741526126861572
1712834891220935400,6.572935302734375,0.9497427344322205,2.2839488983154297,-1.620396375656128
1712834891240935400,6.592935302734375,0.7334964275360107,2.8758771419525146,-1.5819119215011597
1712834891260935200,6.61293505859375,0.640644907951355,3.351741313934326,-1.478064775466919
1712834891280935200,6.63293505859375,0.5502368807792664,3.0902910232543945,-1.4206434488296509
1712834891300935400,6.652935302734375,0.44028112292289734,2.737821578979492,-1.2923617362976074
1712834891320935400,6.672935302734375,0.10186178237199783,2.614426851272583,-1.1249847412109375
1712834891340935400,6.692935302734375,-0.3220787048339844,2.544177293777466,-0.9508880972862244
1712834891360935400,6.712935302734375,-0.7881689071655273,3.3193655014038086,-1.2172253131866455
1712834891380935400,6.732935302734375,-1.6165021657943726,3.7854554653167725,-1.460349678993225
1712834891400935200,6.75293505859375,-1.93598473072052,2.6070964336395264,-0.7883979678153992
1712834891420935200,6.77293505859375,-1.8626807928085327,1.2784645557403564,-0.1457677185535431
1712834891440935200,6.79293505859375,-1.9494236707687378,0.3554472029209137,-0.0016035212902352214
1712834891460935200,6.81293505859375,-2.1730003356933594,0.013973542489111423,0.3288745880126953
1712834891480935200,6.83293505859375,-2.261575937271118,-0.19310978055000305,0.7784714102745056
1712834891500935200,6.85293505859375,-2.3483188152313232,-0.1705077588558197,1.0948995351791382
1712834891520935200,6.87293505859375,-2.1931588649749756,-0.19982929527759552,1.4009430408477783
1712834891540935200,6.89293505859375,-1.9921842813491821,-0.4728860557079315,1.648343563079834
1712834891560935200,6.91293505859375,-1.9213238954544067,-0.956691324710846,1.9476674795150757
1712834891580935200,6.93293505859375,-1.7802140712738037,-1.8601610660552979,2.2744803428649902
1712834891600935200,6.95293505859375,-1.5053247213363647,-3.013474702835083,2.407649040222168
1712834891620935200,6.97293505859375,-1.1485793590545654,-4.318282604217529,2.717968463897705
1712834891640935200,6.99293505859375,-0.8553640842437744,-5.275508403778076,2.965979814529419
1712834891660935400,7.012935302734375,-0.2542726695537567,-5.871713161468506,3.1461851596832275
1712834891680935400,7.032935302734375,0.37369680404663086,-5.755037784576416,2.7949376106262207
1712834891700935400,7.052935302734375,0.5123631954193115,-5.348201751708984,2.477287530899048
1712834891720935400,7.072935302734375,0.3010038435459137,-4.598059177398682,2.767448663711548
1712834891740935400,7.092935302734375,0.27779096364974976,-3.686037302017212,3.2182672023773193
1712834891760935200,7.11293505859375,0.1281289905309677,-2.974379301071167,3.1999411582946777
1712834891780935200,7.13293505859375,0.013286318629980087,-2.2810471057891846,2.8279242515563965
1712834891800935400,7.152935302734375,-0.32268956303596497,-1.6488016843795776,2.952540874481201
1712834891820935400,7.172935302734375,-0.8462010622024536,-2.1014528274536133,2.9983556270599365
1712834891840935400,7.192935302734375,-0.8370380997657776,-2.9560532569885254,2.38504695892334
1712834891860935400,7.212935302734375,-0.5816964507102966,-1.7037795782089233,1.4675273895263672
1712834891880935400,7.232935302734375,0.0010690141934901476,0.7103599309921265,0.8847619295120239
1712834891900935200,7.25293505859375,0.7866417169570923,2.9094748497009277,0.06131559982895851
1712834891920935200,7.27293505859375,1.5502232313156128,4.337066650390625,-0.8537605404853821
1712834891940935200,7.29293505859375,2.107943296432495,5.319338321685791,-1.1891255378723145
1712834891960935200,7.31293505859375,2.1067214012145996,5.3407182693481445,-1.3015247583389282
1712834891980935200,7.33293505859375,2.065793514251709,4.839198112487793,-1.7914386987686157
1712834892000935200,7.35293505859375,2.0285308361053467,3.5374443531036377,-2.120695114135742
1712834892020935200,7.37293505859375,2.032196044921875,2.271731376647949,-2.0321195125579834
1712834892040935200,7.39293505859375,2.1201605796813965,1.2680798768997192,-1.754786729812622
1712834892060935200,7.41293505859375,2.2618813514709473,0.7231881022453308,-1.4676800966262817
1712834892080935200,7.43293505859375,2.2508857250213623,0.8826239109039307,-1.4267520904541016
1712834892100935200,7.45293505859375,1.980883240699768,1.6223816871643066,-1.2496012449264526
1712834892120935200,7.47293505859375,1.6210836172103882,2.6437485218048096,-1.042517900466919
1712834892140935200,7.49293505859375,1.4830280542373657,3.245450735092163,-1.1622475385665894
1712834892160935400,7.512935302734375,1.1519391536712646,3.281491756439209,-1.2453252077102661
1712834892180935400,7.532935302734375,0.7029531598091125,3.3523521423339844,-1.261818528175354
1712834892200935400,7.552935302734375,0.20204368233680725,3.301650285720825,-1.0296896696090698
1712834892220935400,7.572935302734375,-0.42470407485961914,3.111671209335327,-0.6546184420585632
1712834892240935400,7.592935302734375,-1.0178542137145996,3.275994062423706,-0.6802747845649719
1712834892260935200,7.61293505859375,-1.8064812421798706,3.33158278465271,-0.8604800701141357
1712834892280935200,7.63293505859375,-2.3819162845611572,2.648024559020996,-0.5971971154212952
1712834892300935400,7.652935302734375,-2.442391872406006,1.7622698545455933,-0.05597052723169327
1712834892320935400,7.672935302734375,-2.403296709060669,1.0310641527175903,0.30749428272247314
1712834892340935400,7.692935302734375,-2.576171398162842,0.6767623424530029,0.3288745880126953
1712834892360935400,7.712935302734375,-2.50714373588562,0.5332090258598328,0.4302782118320465
1712834892380935400,7.732935302734375,-2.662914276123047,0.37316229939460754,0.5921574831008911
1712834892400935200,7.75293505859375,-2.534632682800293,-0.05749769136309624,0.8566621541976929
1712834892420935200,7.77293505859375,-2.1601722240448,-0.6292675733566284,1.274493932723999
1712834892440935200,7.79293505859375,-1.9995146989822388,-1.2187525033950806,1.6306284666061401
1712834892460935200,7.81293505859375,-1.8461874723434448,-1.984777569770813,1.8798614740371704
1712834892480935200,7.83293505859375,-1.6061174869537354,-2.8668670654296875,2.013640880584717
1712834892500935200,7.85293505859375,-1.2927435636520386,-3.9163334369659424,2.2445480823516846
1712834892520935200,7.87293505859375,-0.8144360780715942,-4.817359447479248,2.3483951091766357
1712834892540935200,7.89293505859375,-0.09422596544027328,-5.4044013023376465,2.4504096508026123
1712834892560935200,7.91293505859375,0.4818199574947357,-5.602321624755859,2.4907267093658447
1712834892580935200,7.93293505859375,0.7145596146583557,-5.341482162475586,2.6886470317840576
1712834892600935200,7.95293505859375,0.717613935470581,-4.978017330169678,2.8755717277526855
1712834892620935200,7.97293505859375,0.4103487432003021,-4.638376235961914,3.010572910308838
1712834892640935200,7.99293505859375,0.04566217586398125,-3.8167624473571777,2.7643942832946777
1712834892660935400,8.012935302734375,-0.11927144229412079,-2.9902617931365967,2.6080129146575928
1712834892680935400,8.032935302734375,-0.5010622143745422,-2.7471373081207275,2.6489408016204834
1712834892700935400,8.052935302734374,-0.7771732807159424,-2.455143690109253,2.415590286254883
1712834892720935400,8.072935302734376,-0.6659958362579346,-1.592602014541626,1.8884135484695435
1712834892740935400,8.092935302734375,-0.44547349214553833,0.027412578463554382,1.2329550981521606
1712834892760935200,8.11293505859375,0.09269879758358002,1.7262288331985474,0.5695554614067078
1712834892780935200,8.13293505859375,1.0865765810012817,3.5258378982543945,-0.5556582808494568
1712834892800935400,8.152935302734376,1.792125940322876,5.325447082519531,-0.8274933099746704
1712834892820935400,8.172935302734375,1.8489364385604858,5.611331939697266,-0.6521750092506409
1712834892840935400,8.192935302734375,1.762804388999939,4.451298713684082,-0.8604800701141357
1712834892860935400,8.212935302734374,1.9295705556869507,3.102508306503296,-1.394376277923584
1712834892880935400,8.232935302734376,1.746311068534851,1.8435149192810059,-1.6576591730117798
1712834892900935200,8.25293505859375,1.5697709321975708,1.4647785425186157,-1.56602942943573
1712834892920935200,8.27293505859375,1.563051462173462,1.5301411151885986,-1.4982234239578247
1712834892940935200,8.29293505859375,1.5331190824508667,1.959579348564148,-1.5770249366760254
1712834892960935200,8.31293505859375,1.4243850708007812,2.6547439098358154,-1.639944076538086
1712834892980935200,8.33293505859375,1.1995866298675537,3.487964153289795,-1.6057356595993042
1712834893000935200,8.35293505859375,0.9063712954521179,3.984597682952881,-1.5776358842849731
1712834893020935200,8.37293505859375,0.8324565887451172,3.8349356651306152,-1.407204508781433
1712834893040935200,8.39293505859375,0.9405797719955444,2.926578998565674,-1.045572280883789
1712834893060935200,8.41293505859375,0.9191994667053223,2.0072269439697266,-0.7560220956802368
1712834893080935200,8.43293505859375,0.3828597962856293,1.9003254175186157,-0.7456374168395996
1712834893100935200,8.45293505859375,-0.14492778480052948,2.8416688442230225,-1.1775190830230713
1712834893120935200,8.47293505859375,-0.6653849482536316,3.354184627532959,-1.5532011985778809
1712834893140935200,8.49293505859375,-1.220050573348999,2.764699697494507,-1.0724502801895142
1712834893160935400,8.512935302734375,-1.4051427841186523,1.7146223783493042,-0.49151745438575745
1712834893180935400,8.532935302734375,-1.4613423347473145,0.7176902890205383,-0.20013472437858582
1712834893200935400,8.552935302734374,-1.687362551689148,0.13431400060653687,0.09796751290559769
1712834893220935400,8.572935302734376,-2.1143572330474854,0.05978843569755554,0.38263070583343506
1712834893240935400,8.592935302734375,-2.4949264526367188,0.32246050238609314,0.5921574831008911
1712834893260935200,8.61293505859375,-2.3935227394104004,0.359112411737442,0.9366855025291443
1712834893280935200,8.63293505859375,-2.297006130218506,0.23632849752902985,1.3728432655334473
1712834893300935400,8.652935302734376,-2.1003074645996094,-0.3079524338245392,1.834046483039856
1712834893320935400,8.672935302734375,-1.8736764192581177,-1.1833223104476929,2.204230785369873
1712834893340935400,8.692935302734375,-1.802205204963684,-2.1772000789642334,2.5567002296447754
1712834893360935400,8.712935302734374,-1.8504635095596313,-3.549203395843506,2.7191903591156006
1712834893380935400,8.732935302734376,-1.913382649421692,-4.524755001068115,2.986138343811035
1712834893400935200,8.75293505859375,-1.4790574312210083,-5.590104103088379,3.5762341022491455
1712834893420935200,8.77293505859375,-0.33307427167892456,-6.189973831176758,3.136411190032959
1712834893440935200,8.79293505859375,0.20082195103168488,-6.519841194152832,2.452242136001587
1712834893460935200,8.81293505859375,-0.01114829070866108,-6.061081409454346,2.67520809173584
1712834893480935200,8.83293505859375,-0.3459024429321289,-4.216879367828369,3.097926616668701
1712834893500935200,8.85293505859375,-0.2652682363986969,-2.734309196472168,2.969034194946289
1712834893520935200,8.87293505859375,0.20693060755729675,-1.5822173357009888,2.6012933254241943
1712834893540935200,8.89293505859375,-0.07101308554410934,-1.5816065073013306,2.91833233833313
1712834893560935200,8.91293505859375,-0.38866302371025085,-2.5602126121520996,2.8719065189361572
1712834893580935200,8.93293505859375,-0.4265366494655609,-2.859536647796631,2.3673319816589355
1712834893600935200,8.95293505859375,-0.2249511331319809,-1.6933947801589966,1.4540883302688599
1712834893620935200,8.97293505859375,0.10308351367712021,0.23205243051052094,0.8859837055206299
1712834893640935200,8.99293505859375,0.8666650652885437,2.302274703979492,0.08575020730495453
1712834893660935400,9.012935302734375,1.6656768321990967,3.8153879642486572,-0.5776494741439819
1712834893680935400,9.032935302734375,2.088395595550537,4.805600643157959,-0.7792350053787231
1712834893700935400,9.052935302734374,2.236224889755249,4.883791446685791,-1.0828349590301514
1712834893720935400,9.072935302734376,2.4072673320770264,4.748790264129639,-1.6368898153305054
1712834893740935400,9.092935302734375,2.3718371391296387,4.233219623565674,-2.1323015689849854
1712834893760935200,9.11293505859375,1.9521726369857788,3.7298667430877686,-2.198274850845337
1712834893780935200,9.13293505859375,1.7884607315063477,3.1318297386169434,-2.145129680633545
1712834893800935400,9.152935302734376,1.7206547260284424,2.494697332382202,-2.1078670024871826
1712834893820935400,9.172935302734375,1.7273741960525513,1.988900899887085,-1.8708511590957642
1712834893840935400,9.192935302734375,1.6369661092758179,2.06953501701355,-1.7327955961227417
1712834893860935400,9.212935302734374,1.384678840637207,2.357252597808838,-1.630170226097107
1712834893880935400,9.232935302734376,1.2661709785461426,2.606485605239868,-1.4047609567642212
1712834893900935200,9.25293505859375,1.2173017263412476,2.460488796234131,-1.1732430458068848
1712834893920935200,9.27293505859375,1.0370965003967285,2.24607515335083,-1.10849130153656
1712834893940935200,9.29293505859375,0.5673410892486572,2.524629592895508,-1.098717451095581
1712834893960935200,9.31293505859375,0.13545936346054077,3.3828954696655273,-1.214171051979065
1712834893980935200,9.33293505859375,-0.38499781489372253,4.001091003417969,-1.6631569862365723
1712834894000935200,9.35293505859375,-1.078940749168396,3.505068302154541,-1.4346933364868164
1712834894020935200,9.37293505859375,-1.2805262804031372,2.4091761112213135,-0.9148470759391785
1712834894040935200,9.39293505859375,-1.4008667469024658,1.1135309934616089,-0.38461601734161377
1712834894060935200,9.41293505859375,-1.6116151809692383,0.4116468131542206,0.07108944654464722
1712834894080935200,9.43293505859375,-1.9292651414871216,0.21250474452972412,0.4296673536300659
1712834894100935200,9.45293505859375,-2.2713496685028076,0.29252809286117554,0.6208681464195251
1712834894120935200,9.47293505859375,-2.325105905532837,0.5460371971130371,0.8163450360298157
1712834894140935200,9.49293505859375,-2.2487475872039795,0.5393176674842834,1.095510482788086
1712834894160935400,9.512935302734375,-2.2145392894744873,0.1984548419713974,1.476690411567688
1712834894180935400,9.532935302734375,-2.0648772716522217,-0.5015967488288879,1.9171242713928223
1712834894200935400,9.552935302734374,-1.8865046501159668,-1.5767195224761963,2.268371820449829
1712834894220935400,9.572935302734376,-1.5890132188796997,-2.854038715362549,2.3025801181793213
1712834894240935400,9.592935302734375,-1.4515684843063354,-4.13502311706543,2.1352031230926514
1712834894260935200,9.61293505859375,-1.2487612962722778,-5.233969688415527,2.3331234455108643
1712834894280935200,9.63293505859375,-0.6495024561882019,-6.300540447235107,2.8700740337371826
1712834894300935400,9.652935302734376,0.327271044254303,-6.084294319152832,2.681927442550659
1712834894320935400,9.672935302734375,0.19837848842144012,-5.662186145782471,2.5145504474639893
1712834894340935400,9.692935302734375,-0.2347249686717987,-4.80086612701416,2.782109498977661
1712834894360935400,9.712935302734374,-0.6140722632408142,-3.420921802520752,2.746068239212036
1712834894380935400,9.732935302734376,-0.4931209683418274,-3.0073659420013428,2.6440539360046387
1712834894400935200,9.75293505859375,-0.5566509366035461,-3.105715274810791,2.9726994037628174
1712834894420935200,9.77293505859375,-0.8052731156349182,-3.1203761100769043,2.7167468070983887
1712834894440935200,9.79293505859375,-0.9207266569137573,-2.7471373081207275,2.276313066482544
1712834894460935200,9.81293505859375,-0.7881689071655273,-1.3916274309158325,1.464473009109497
1712834894480935200,9.83293505859375,-0.25182920694351196,-0.0012980886967852712,0.8914814591407776
1712834894500935200,9.85293505859375,0.6155994534492493,2.011502981185913,0.0466548316180706
1712834894520935200,9.87293505859375,1.5801557302474976,4.080503463745117,-0.5373323559761047
1712834894540935200,9.89293505859375,2.0755674839019775,5.090874671936035,-0.48113274574279785
1712834894560935200,9.91293505859375,2.132377862930298,4.811098098754883,-0.7981718182563782
1712834894580935200,9.93293505859375,2.3797783851623535,4.370053768157959,-1.423697829246521
1712834894600935200,9.95293505859375,2.436588764190674,3.848985433578491,-1.8360317945480347
1712834894620935200,9.97293505859375,2.175138473510742,3.4256558418273926,-1.9398789405822754
1712834894640935200,9.99293505859375,2.0951151847839355,3.024317502975464,-1.8855119943618774
1712834894660935400,10.012935302734375,2.1531472206115723,2.6749024391174316,-1.8085429668426514
1712834894680935400,10.032935302734375,2.0169243812561035,2.597933530807495,-1.7389042377471924
1712834894700935400,10.052935302734374,1.743256688117981,2.7860801219940186,-1.7401260137557983
1712834894720935400,10.072935302734376,1.365131139755249,3.3578498363494873,-1.6814829111099243
1712834894740935400,10.092935302734375,1.0847439765930176,3.9558870792388916,-1.5727488994598389
1712834894760935200,10.11293505859375,0.7402159571647644,3.717038631439209,-1.4664583206176758
1712834894780935200,10.13293505859375,0.31749722361564636,3.166649103164673,-1.299692153930664
1712834894800935400,10.152935302734376,-0.06123924255371094,2.3755786418914795,-1.0406852960586548
1712834894820935400,10.172935302734375,-0.38927388191223145,1.8380171060562134,-0.7664068341255188
1712834894840935400,10.192935302734375,-0.8553640842437744,2.1520018577575684,-0.6204100251197815
1712834894860935400,10.212935302734374,-1.4662293195724487,2.7634780406951904,-0.9166796803474426
1712834894880935400,10.232935302734376,-2.048383951187134,2.666961193084717,-0.7651850581169128
1712834894900935200,10.25293505859375,-2.2768476009368896,1.951638102531433,-0.180587038397789
1712834894920935200,10.27293505859375,-2.3324363231658936,0.9791406393051147,0.1834886521100998
1712834894940935200,10.29293505859375,-2.40940523147583,0.28092166781425476,0.4712061882019043
1712834894960935200,10.31293505859375,-2.3330471515655518,-0.19677497446537018,0.828562319278717
1712834894980935200,10.33293505859375,-2.2713496685028076,-0.4398993253707886,1.2329550981521606
1712834895000935200,10.35293505859375,-2.2511911392211914,-0.7080692052841187,1.617800235748291
1712834895020935200,10.37293505859375,-1.993406057357788,-1.1356748342514038,1.9189567565917969
1712834895040935200,10.39293505859375,-1.764331579208374,-1.652466893196106,2.0405189990997314
1712834895060935200,10.41293505859375,-1.439351201057434,-2.466139316558838,1.9507218599319458
1712834895080935200,10.43293505859375,-1.1577423810958862,-3.656104803085327,2.072894811630249
1712834895100935200,10.45293505859375,-0.9127854108810425,-4.760549068450928,2.4644594192504883
1712834895120935200,10.47293505859375,-0.5328271985054016,-5.56444787979126,2.8193721771240234
1712834895140935200,10.49293505859375,0.060322944074869156,-5.962731838226318,2.8028788566589355
1712834895160935400,10.512935302734375,0.4476115107536316,-5.901034832000732,2.6177866458892822
1712834895180935400,10.532935302734375,0.3364340364933014,-5.221752643585205,2.9256627559661865
1712834895200935400,10.552935302734374,-0.06673702597618103,-4.268191814422607,3.155958890914917
1712834895220935400,10.572935302734376,-0.564592182636261,-3.360445976257324,3.0771572589874268
1712834895240935400,10.592935302734375,-0.8113817572593689,-2.1521546840667725,2.6318366527557373
1712834895260935200,10.61293505859375,-1.1284208297729492,-1.9841666221618652,2.9146671295166016
1712834895280935200,10.63293505859375,-1.2841914892196655,-2.7330875396728516,2.7045295238494873
1712834895300935400,10.652935302734376,-0.9897544384002686,-2.9639945030212402,2.089998960494995
1712834895320935400,10.672935302734375,-0.5890268087387085,-1.3116040229797363,1.3862823247909546
1712834895340935400,10.692935302734375,0.03894266113638878,1.154458999633789,0.8077929019927979
1712834895360935400,10.712935302734374,0.8385652899742126,3.183753252029419,-0.16409367322921753
1712834895380935400,10.732935302734376,1.5349516868591309,4.851415634155273,-1.2544881105422974
1712834895400935200,10.75293505859375,1.8684840202331543,6.152558326721191,-1.385824203491211
1712834895420935200,10.77293505859375,1.8489364385604858,5.748165607452393,-1.4194217920303345
1712834895440935200,10.79293505859375,1.9900462627410889,4.5056657791137695,-1.8500818014144897
1712834895460935200,10.81293505859375,2.062739133834839,3.474525213241577,-2.265470027923584
1712834895480935200,10.83293505859375,1.7719674110412598,2.7225501537323,-2.3082306385040283
1712834895500935200,10.85293505859375,1.5612188577651978,2.1055760383605957,-2.0431151390075684
1712834895520935200,10.87293505859375,1.430493712425232,1.6791921854019165,-1.916666030883789
1712834895540935200,10.89293505859375,1.2496775388717651,1.4134658575057983,-1.8653533458709717
1712834895560935200,10.91293505859375,1.2893837690353394,1.4592807292938232,-1.7602845430374146
1712834895580935200,10.93293505859375,1.2594513893127441,1.9687423706054688,-1.6295593976974487
1712834895600935200,10.95293505859375,1.0438159704208374,2.3511440753936768,-1.3430635929107666
1712834895620935200,10.97293505859375,0.88987797498703,2.2662336826324463,-0.806113064289093
1712834895640935200,10.99293505859375,0.9295842051506042,1.6034449338912964,-0.7040985822677612
1712834895660935400,11.012935302734375,0.6467535495758057,1.7109571695327759,-1.0877219438552856
1712834895680935400,11.032935302734375,0.194713294506073,2.6584091186523438,-1.4927256107330322
1712834895700935400,11.052935302734374,-0.3349068760871887,3.217350959777832,-1.6295593976974487
1712834895720935400,11.072935302734376,-0.8529205918312073,2.7579801082611084,-1.1567497253417969
1712834895740935400,11.092935302734375,-0.9567676782608032,1.9284251928329468,-0.6075818538665771
1712834895760935200,11.11293505859375,-1.0917688608169556,1.0744355916976929,-0.180587038397789
1712834895780935200,11.13293505859375,-1.5462526082992554,0.7690029740333557,0.12118039280176163
1712834895800935400,11.152935302734376,-1.9866864681243896,0.6651558876037598,0.415617436170578
1712834895820935400,11.172935302734375,-2.303725481033325,0.5845217108726501,0.7705301642417908
1712834895840935400,11.192935302734375,-2.42834210395813,0.38843393325805664,1.159651279449463
1712834895860935400,11.212935302734374,-2.3654229640960693,0.13064880669116974,1.5396095514297485
1712834895880935400,11.232935302734376,-2.3709206581115723,-0.19188804924488068,2.0246365070343018
1712834895900935200,11.25293505859375,-2.3959662914276123,-0.9377545118331909,2.625727891921997
1712834895920935200,11.27293505859375,-2.437505006790161,-2.1521546840667725,3.191999912261963
1712834895940935200,11.29293505859375,-2.713616132736206,-3.3476178646087646,3.6067774295806885
1712834895960935200,11.31293505859375,-2.654362201690674,-4.59867000579834,3.793091297149658
1712834895980935200,11.33293505859375,-2.0233383178710938,-5.7758073806762695,3.758272171020508
1712834896000935200,11.35293505859375,-0.7111998796463013,-6.492962837219238,3.7436113357543945
1712834896020935200,11.37293505859375,0.3065016269683838,-7.276703357696533,3.3477706909179688
1712834896040935200,11.39293505859375,-0.16630806028842926,-6.740974426269531,2.673375368118286
1712834896060935200,11.41293505859375,-1.0099129676818848,-5.059262275695801,3.0124056339263916
1712834896080935200,11.43293505859375,-0.7179193496704102,-2.7672958374023438,3.0783791542053223
1712834896100935200,11.45293505859375,-0.08628471940755844,-1.935908317565918,2.865187168121338
1712834896120935200,11.47293505859375,-0.06734789162874222,-1.7697529792785645,3.1156418323516846
1712834896140935200,11.49293505859375,-0.29764407873153687,-2.1326069831848145,3.016681671142578
1712834896160935400,11.512935302734375,-0.24327708780765533,-2.673222780227661,2.6080129146575928
1712834896180935400,11.532935302734375,0.2002110779285431,-1.5492305755615234,1.6318501234054565
1712834896200935400,11.552935302734374,0.7988590002059937,0.5191590785980225,0.9085856676101685
1712834896220935400,11.572935302734376,1.5850425958633423,2.8642706871032715,0.018555032089352608
1712834896240935400,11.592935302734375,1.973552942276001,4.607680320739746,-0.767017662525177
1712834896260935200,11.61293505859375,2.2490530014038086,5.760993957519531,-1.2764792442321777
1712834896280935200,11.63293505859375,2.6760480403900146,6.1305670738220215,-1.458517074584961
1712834896300935400,11.652935302734376,2.685210943222046,5.509928226470947,-1.832366704940796
1712834896320935400,11.672935302734375,2.2624921798706055,4.492226600646973,-2.198274850845337
1712834896340935400,11.692935302734375,1.7004960775375366,3.5404984951019287,-2.3332762718200684
1712834896360935400,11.712935302734374,1.3101532459259033,2.634585380554199,-2.3033437728881836
1712834896380935400,11.732935302734376,1.0621418952941895,1.8404606580734253,-2.3479368686676025
1712834896400935200,11.75293505859375,0.9191994667053223,1.7182875871658325,-2.360764980316162
1712834896420935200,11.77293505859375,0.9485210180282593,1.962633728981018,-2.2422573566436768
1712834896440935200,11.79293505859375,0.9228646755218506,2.5014169216156006,-2.030287027359009
1712834896460935200,11.81293505859375,0.6644686460494995,3.1012864112854004,-1.9429333209991455
1712834896480935200,11.83293505859375,0.3058907687664032,3.5001814365386963,-1.914833426475525
1712834896500935200,11.85293505859375,0.08903361111879349,3.473914384841919,-1.8403079509735107
1712834896520935200,11.87293505859375,-0.06001751124858856,3.018819570541382,-1.5067754983901978
1712834896540935200,11.89293505859375,-0.3165809214115143,2.301663875579834,-1.0822241306304932
1712834896560935200,11.91293505859375,-0.3868304193019867,2.0292179584503174,-0.8843038082122803
1712834896580935200,11.93293505859375,-0.5951354503631592,2.843501329421997,-1.2465468645095825
1712834896600935200,11.95293505859375,-0.7857254147529602,2.5857162475585938,-1.1970667839050293
1712834896620935200,11.97293505859375,-0.9689850211143494,1.5832864046096802,-0.7095963358879089
1712834896640935200,11.99293505859375,-1.0490083694458008,0.6865361928939819,-0.27954721450805664
1712834896660935400,12.012935302734375,-1.0551170110702515,0.1776854246854782,-0.059635721147060394
1712834896680935400,12.032935302734375,-1.1748465299606323,-0.1705077588558197,0.1633300930261612
1712834896700935400,12.052935302734374,-1.3611605167388916,-0.358654260635376,0.3753003478050232
1712834896720935400,12.072935302734376,-1.4924964904785156,-0.12469286471605301,0.6208681464195251
1712834896740935400,12.092935302734375,-1.5187636613845825,0.20700696110725403,0.828562319278717
1712834896760935200,12.11293505859375,-1.630552053451538,0.4757876694202423,0.9238573312759399
1712834896780935200,12.13293505859375,-1.8553504943847656,0.6309474110603333,1.1804207563400269
1712834896800935400,12.152935302734376,-1.9463694095611572,0.3639993369579315,1.5738179683685303
1712834896820935400,12.172935302734375,-1.8828394412994385,-0.2963460087776184,2.072894811630249
1712834896840935400,12.192935302734375,-1.7392860651016235,-1.3592514991760254,2.600071668624878
1712834896860935400,12.212935302734374,-1.2921327352523804,-2.9865965843200684,2.8480827808380127
1712834896880935400,12.232935302734376,-1.060614824295044,-4.7092366218566895,2.9922471046447754
1712834896900935200,12.25293505859375,-0.775340735912323,-6.0604705810546875,3.0954833030700684
1712834896920935200,12.27293505859375,-0.3715587854385376,-6.6133036613464355,3.3105077743530273
1712834896940935200,12.29293505859375,0.1892155110836029,-6.509456634521484,3.256140947341919
1712834896960935200,12.31293505859375,0.40973785519599915,-6.227236747741699,3.2390365600585938
1712834896980935200,12.33293505859375,-0.26221391558647156,-5.356753826141357,3.18955659866333
1712834897000935200,12.35293505859375,-0.8639161586761475,-3.750178098678589,2.9116127490997314
1712834897020935200,12.37293505859375,-0.5523748993873596,-2.1692588329315186,2.9311604499816895
1712834897040935200,12.39293505859375,-0.6207917928695679,-1.1698832511901855,3.0343966484069824
1712834897060935200,12.41293505859375,-0.7472409009933472,-1.6769014596939087,3.1376330852508545
1712834897080935200,12.43293505859375,-0.7704538106918335,-2.52539324760437,2.614732265472412
1712834897100935200,12.45293505859375,-0.6354525685310364,-2.050750970840454,1.6397913694381714
1712834897120935200,12.47293505859375,0.6840163469314575,0.7549530863761902,0.6660721898078918
1712834897140935200,12.49293505859375,1.9924896955490112,3.214296579360962,-0.11827878654003143
1712834897160935400,12.512935302734375,2.4695754051208496,4.928995132446289,-0.7370852828025818
1712834897180935400,12.532935302734375,2.490345001220703,5.877668857574463,-1.1433106660842896
1712834897200935400,12.552935302734374,2.6479480266571045,6.201427459716797,-1.5764141082763672
1712834897220935400,12.572935302734376,2.5465445518493652,5.707237720489502,-2.088930130004883
1712834897240935400,12.592935302734375,2.0303633213043213,4.387768745422363,-2.485992431640625
1712834897260935200,12.61293505859375,1.6308574676513672,3.1525990962982178,-2.563572406768799
1712834897280935200,12.63293505859375,1.5215126276016235,2.5209646224975586,-2.3888649940490723
1712834897300935400,12.652935302734376,1.5099061727523804,2.128788948059082,-2.181170701980591
1712834897320935400,12.672935302734375,1.5312864780426025,1.8600083589553833,-2.070604085922241
1712834897340935400,12.692935302734375,1.552055835723877,1.875890851020813,-2.033952236175537
1712834897360935400,12.712935302734374,1.3449726104736328,2.4769821166992188,-1.9252182245254517
1712834897380935400,12.732935302734376,1.1385000944137573,3.1202232837677,-1.668043851852417
1712834897400935200,12.75293505859375,0.8862127661705017,3.337080478668213,-1.5605316162109375
1712834897420935200,12.77293505859375,0.5068654417991638,3.161762237548828,-1.4719561338424683
1712834897440935200,12.79293505859375,0.4158465266227722,2.7463738918304443,-1.30091392993927
1712834897460935200,12.81293505859375,0.23136521875858307,3.0322587490081787,-1.0553460121154785
1712834897480935200,12.83293505859375,-0.5157229900360107,3.6174676418304443,-1.3406201601028442
1712834897500935200,12.85293505859375,-1.0813841819763184,2.9559006690979004,-1.0449613332748413
1712834897520935200,12.87293505859375,-1.3306171894073486,2.106797933578491,-0.43104177713394165
1712834897540935200,12.89293505859375,-1.3587169647216797,1.27724289894104,-0.11827878654003143
1712834897560935200,12.91293505859375,-1.5566374063491821,0.9357692003250122,-0.009544769302010536
1712834897580935200,12.93293505859375,-1.829694151878357,0.753731369972229,0.17188221216201782
1712834897600935200,12.95293505859375,-1.9390389919281006,0.7482335567474365,0.29161179065704346
1712834897620935200,12.97293505859375,-2.0202841758728027,0.8343655467033386,0.505414605140686
1712834897640935200,12.99293505859375,-2.0526599884033203,0.772057294845581,0.8572730422019958
1712834897660935400,13.012935302734375,-2.0392208099365234,0.6181192994117737,1.2036336660385132
1712834897680935400,13.032935302734375,-2.0056233406066895,0.481896311044693,1.5762614011764526
1712834897700935400,13.052935302734374,-2.0086777210235596,0.0365755558013916,1.9348392486572266
1712834897720935400,13.072935302734376,-1.945758581161499,-0.5529094338417053,2.320906162261963
1712834897740902100,13.092902099609375,-1.8046486377716064,-1.34825599193573,2.7191903591156006
1712834897760868400,13.112868408203125,-1.754557728767395,-2.235232353210449,3.102202892303467
1712834897780835000,13.1328349609375,-1.457066297531128,-3.225444793701172,3.1260266304016113
1712834897800801800,13.1528017578125,-0.8278751373291016,-4.56079626083374,3.0967049598693848
1712834897820768500,13.1727685546875,-0.25182920694351196,-5.9431843757629395,3.306231737136841
1712834897840735200,13.1927353515625,0.37797287106513977,-6.731200695037842,3.0508902072906494
1712834897860701700,13.21270166015625,0.5746715068817139,-6.660340309143066,2.9818623065948486
1712834897880668400,13.23266845703125,0.39385536313056946,-6.018320560455322,3.175506591796875
1712834897900635000,13.252634765625,0.12629638612270355,-4.676249980926514,3.4277939796447754
1712834897920601600,13.2726015625,0.015118914656341076,-3.4667365550994873,3.1846694946289062
1712834897940568000,13.292568115234374,0.028557950630784035,-2.18147611618042,3.0569987297058105
1712834897960534800,13.31253466796875,-0.370947927236557,-1.937130093574524,3.3019556999206543
1712834897980501500,13.33250146484375,-0.4784601926803589,-2.81555438041687,3.005075216293335
1712834898000468200,13.35246826171875,-0.3764457106590271,-2.851595401763916,2.3202953338623047
1712834898020435200,13.372435302734376,0.0933096632361412,-1.3109931945800781,1.4876859188079834
1712834898040401700,13.392401611328125,0.7304421067237854,0.685925304889679,1.0576368570327759
1712834898060368400,13.412368408203125,1.5777121782302856,2.560670852661133,0.031383201479911804
1712834898080335000,13.432335205078125,2.1097757816314697,4.146476745605469,-0.6625596880912781
1712834898100301800,13.4523017578125,2.3687827587127686,5.141576290130615,-0.9087384343147278
1712834898120268500,13.4722685546875,2.6338982582092285,5.291238307952881,-1.2722032070159912
1712834898140235000,13.492235107421875,2.9466612339019775,5.237482070922852,-1.8030451536178589
1712834898160201700,13.51220166015625,2.6815457344055176,4.579580307006836,-1.840918779373169
1712834898180168400,13.53216845703125,2.4353671073913574,3.6296849250793457,-1.7046958208084106
1712834898200135200,13.55213525390625,2.3577871322631836,2.6095399856567383,-1.5965726375579834
1712834898220102000,13.572101806640624,2.1922426223754883,1.8520671129226685,-1.5922966003417969
1712834898240068400,13.592068359375,2.0926716327667236,1.6975181102752686,-1.5586990118026733
1712834898260034800,13.612034912109374,1.9741637706756592,2.530738353729248,-1.5959618091583252
1712834898280001500,13.63200146484375,1.9552268981933594,3.9021308422088623,-1.649717926979065
1712834898299968300,13.65196826171875,1.754252314567566,4.677319049835205,-1.6814829111099243
1712834898319934700,13.671934814453126,1.267392635345459,4.5728607177734375,-1.6002378463745117
1712834898339934700,13.691934814453125,0.9161451458930969,3.699934482574463,-1.6387224197387695
1712834898359934700,13.711934814453125,0.5551238059997559,3.0505847930908203,-1.4805083274841309
1712834898379934700,13.731934814453124,0.02428189292550087,3.3560173511505127,-1.497612476348877
1712834898399934700,13.751934814453126,-0.7997753024101257,3.775070905685425,-1.8543578386306763
1712834898419934700,13.771934814453125,-1.3953689336776733,3.3389129638671875,-1.5061646699905396
1712834898439934700,13.791934814453125,-1.4485142230987549,2.7659213542938232,-0.9020189046859741
1712834898459934700,13.811934814453124,-1.7453947067260742,2.2949442863464355,-0.7126506567001343
1712834898479934700,13.831934814453126,-2.116189956665039,1.789147973060608,-0.5562691688537598
1712834898499934700,13.851934814453125,-2.1424572467803955,1.2845731973648071,-0.29481884837150574
1712834898519935200,13.871935302734375,-2.3403775691986084,1.0035752058029175,0.07658722996711731
1712834898539935200,13.891935302734375,-2.4448354244232178,0.666377604007721,0.5304601192474365
1712834898559935200,13.911935302734374,-2.4252877235412598,0.4250858426094055,1.028926134109497
1712834898579935200,13.931935302734376,-2.503478527069092,0.2833651304244995,1.3758976459503174
1712834898599935200,13.951935302734375,-2.5474607944488525,-0.10209085047245026,1.6660585403442383
1712834898619934700,13.971934814453125,-2.442391872406006,-0.7654905319213867,2.173687696456909
1712834898639934700,13.991934814453124,-2.2591323852539062,-1.38307523727417,2.692312240600586
1712834898659934700,14.011934814453125,-2.1479549407958984,-2.117946147918701,3.130302667617798
1712834898679934700,14.031934814453125,-2.017840623855591,-2.9584968090057373,3.4058027267456055
1712834898699934700,14.051934814453125,-1.4955508708953857,-3.907170534133911,3.18955659866333
1712834898719934700,14.071934814453124,-0.7533495426177979,-5.4887003898620605,3.080822467803955
1712834898739934700,14.091934814453126,-0.06062837690114975,-6.76052188873291,3.4894914627075195
1712834898759934700,14.111934814453125,0.7512115240097046,-6.528393268585205,3.153515577316284
1712834898779934700,14.131934814453125,1.038318157196045,-6.350020408630371,3.359377145767212
1712834898799934700,14.151934814453124,1.0493137836456299,-5.833228588104248,3.784539222717285
1712834898819934700,14.171934814453126,0.7225008606910706,-5.032995223999023,3.81447172164917
1712834898839934700,14.191934814453125,0.18249599635601044,-3.6200637817382812,3.3331098556518555
1712834898859934700,14.211934814453125,-0.2603813111782074,-2.2529473304748535,3.1858913898468018
1712834898879934700,14.231934814453124,-0.7111998796463013,-1.8381699323654175,3.1626784801483154
1712834898899934700,14.251934814453126,-0.9836457371711731,-1.9383517503738403,2.7252988815307617
1712834898919934700,14.271934814453125,-0.9640980958938599,-1.7605899572372437,1.9195677042007446
1712834898939934700,14.291934814453125,-0.6641632318496704,-0.06849326193332672,1.0722975730895996
1712834898959934700,14.311934814453124,0.1635591685771942,2.402456760406494,0.2629011273384094
1712834898979934700,14.331934814453126,1.232573390007019,4.162359237670898,-0.605749249458313
1712834898999934700,14.351934814453125,2.0260872840881348,6.025498390197754,-1.0223593711853027
1712834899019935200,14.371935302734375,2.065182685852051,6.366971969604492,-1.1127674579620361
1712834899039935200,14.391935302734375,2.155590772628784,5.415244102478027,-1.4621822834014893
1712834899059935200,14.411935302734374,2.126880168914795,3.9338958263397217,-1.947209358215332
1712834899079935200,14.431935302734376,1.6308574676513672,2.301663875579834,-1.9099465608596802
1712834899099935200,14.451935302734375,1.5593862533569336,1.4104114770889282,-1.6576591730117798
1712834899119934700,14.471934814453125,1.4897476434707642,0.9565386176109314,-1.510440707206726
1712834899139934700,14.491934814453124,1.3993395566940308,1.3499358892440796,-1.6967545747756958
1712834899159934700,14.511934814453125,1.3712397813796997,2.357252597808838,-1.8085429668426514
1712834899179934700,14.531934814453125,1.1977540254592896,3.40427565574646,-1.6729308366775513
1712834899199934700,14.551934814453125,0.9900598526000977,3.9754345417022705,-1.450575828552246
1712834899219934700,14.571934814453124,0.8782715201377869,3.3999996185302734,-1.3937654495239258
1712834899239934700,14.591934814453126,0.9582948684692383,2.6461918354034424,-1.6271159648895264
1712834899259934700,14.611934814453125,0.47021353244781494,2.5160775184631348,-1.4719561338424683
1712834899279934700,14.631934814453125,-0.18219055235385895,2.9510135650634766,-1.4108695983886719
1712834899299934700,14.651934814453124,-0.755182147026062,3.0768518447875977,-1.4102587699890137
1712834899319934700,14.671934814453126,-1.2237157821655273,2.5374579429626465,-1.0180833339691162
1712834899339934700,14.691934814453125,-1.5108224153518677,1.8239672183990479,-0.7022659778594971
1712834899359934700,14.711934814453125,-1.6134477853775024,1.246699571609497,-0.46036332845687866
1712834899379934700,14.731934814453124,-1.7887661457061768,0.9009498953819275,-0.0846811980009079
1712834899399934700,14.751934814453126,-2.093587875366211,0.9033933281898499,0.23174700140953064
1712834899419934700,14.771934814453125,-2.50408935546875,1.0139600038528442,0.5891031622886658
1712834899439934700,14.791934814453125,-2.4466679096221924,0.8416959643363953,1.0545824766159058
1712834899459934700,14.811934814453124,-2.331214427947998,0.533819854259491,1.438816785812378
1712834899479934700,14.831934814453126,-2.2151501178741455,-0.008017606101930141,1.7839555740356445
1712834899499934700,14.851934814453125,-1.9494236707687378,-0.9353110194206238,2.2579870223999023
1712834899519935200,14.871935302734375,-1.913382649421692,-2.136883020401001,2.6770405769348145
1712834899539935200,14.891935302734375,-1.6610952615737915,-3.482008218765259,2.6385560035705566
1712834899559935200,14.911935302734374,-1.2609785795211792,-5.500307083129883,2.603125810623169
1712834899579935200,14.931935302734376,-0.9158397316932678,-6.477691650390625,2.9403235912323
1712834899599935200,14.951935302734375,-0.26282477378845215,-6.845432281494141,2.9928579330444336
1712834899619934700,14.971934814453125,0.09392052888870239,-6.448980808258057,2.5377633571624756
1712834899639934700,14.991934814453124,0.060933809727430344,-5.267567157745361,2.572582721710205
1712834899659934700,15.011934814453125,0.07376197725534439,-3.979252576828003,2.7533986568450928
1712834899679934700,15.031934814453125,0.05604688450694084,-2.4197134971618652,2.642832040786743
1712834899699934700,15.051934814453125,0.04199698567390442,-1.7581465244293213,2.570139169692993
1712834899719934700,15.071934814453124,-0.2047925740480423,-2.030592441558838,2.771113872528076
1712834899739934700,15.091934814453126,-0.4082106947898865,-2.670168399810791,2.776000738143921
1712834899759934700,15.111934814453125,-0.49067750573158264,-2.8137216567993164,2.3007476329803467
1712834899779934700,15.131934814453125,-0.3599523603916168,-1.3427581787109375,1.1755337715148926
1712834899799934700,15.151934814453124,0.19715675711631775,1.5362497568130493,0.13950635492801666
1712834899819934700,15.171934814453126,1.0719157457351685,3.945502281188965,-0.6081926822662354
1712834899839934700,15.191934814453125,1.7090482711791992,5.539860725402832,-0.8030587434768677
1712834899859934700,15.211934814453125,1.8342756032943726,6.045657157897949,-0.8983536958694458
1712834899879934700,15.231934814453124,1.9130772352218628,5.1562371253967285,-1.2392165660858154
1712834899899934700,15.251934814453126,1.991878867149353,3.935117483139038,-1.7046958208084106
1712834899919934700,15.271934814453125,1.811673641204834,2.692006826400757,-1.8085429668426514
1712834899939934700,15.291934814453125,1.6143641471862793,1.6535358428955078,-1.6729308366775513
1712834899959934700,15.311934814453124,1.5416711568832397,1.1587350368499756,-1.4291956424713135
1712834899979934700,15.331934814453126,1.4256067276000977,1.1941652297973633,-1.2770901918411255
1712834899999934700,15.351934814453125,1.4201090335845947,1.5093716382980347,-1.2770901918411255
1712834900019935200,15.371935302734375,1.2826642990112305,2.446439027786255,-1.3216832876205444
1712834900039935200,15.391935302734375,1.0768027305603027,3.393890857696533,-1.223944902420044
1712834900059935200,15.411935302734374,0.9228646755218506,4.02613639831543,-1.3229050636291504
1712834900079935200,15.431935302734376,0.7053966522216797,3.8636462688446045,-1.355280876159668
1712834900099935200,15.451935302734375,0.4005748927593231,3.2081878185272217,-1.2379947900772095
1712834900119934700,15.471934814453125,0.27779096364974976,2.195984125137329,-0.9527207016944885
1712834900139934700,15.491934814453124,0.1036943718791008,2.067091703414917,-0.5257259011268616
1712834900159934700,15.511934814453125,-0.6317873597145081,2.840446949005127,-0.9014080166816711
1712834900179934700,15.531934814453125,-1.3935363292694092,2.8202884197235107,-0.9111818671226501
1712834900199934700,15.551934814453125,-1.5517504215240479,2.2356903553009033,-0.5788711905479431
1712834900219934700,15.571934814453124,-1.764331579208374,1.6425403356552124,-0.25938865542411804
1712834900239934700,15.591934814453126,-2.094198703765869,1.2601386308670044,-0.18303050100803375
1712834900259934700,15.611934814453125,-2.286621332168579,1.038394570350647,0.03749185428023338
1712834900279934700,15.631934814453125,-2.230421781539917,0.33651039004325867,0.2989421784877777
1712834900299934700,15.651934814453124,-2.211484909057617,-0.21510092914104462,0.6727917194366455
1712834900319934700,15.671934814453126,-2.1119139194488525,-1.063592791557312,1.126664638519287
1712834900339934700,15.691934814453125,-1.983632206916809,-1.924912691116333,1.6544522047042847
1712834900359934700,15.711934814453125,-1.8064812421798706,-2.7556893825531006,2.1297054290771484
1712834900379934700,15.731934814453124,-1.4057536125183105,-3.3500614166259766,2.2592086791992188
1712834900399934700,15.751934814453126,-0.9744827747344971,-4.07454776763916,2.2078959941864014
1712834900419934700,15.771934814453125,-0.48517972230911255,-4.555298328399658,2.3007476329803467
1712834900439934700,15.791934814453125,0.2503020465373993,-4.979849815368652,2.3722188472747803
1712834900459934700,15.811934814453124,0.498924195766449,-5.341482162475586,2.4125359058380127
1712834900479934700,15.831934814453126,0.41890084743499756,-5.46976375579834,2.7167468070983887
1712834900499934700,15.851934814453125,0.34376442432403564,-5.194263458251953,2.762561798095703
1712834900519935200,15.871935302734375,-0.03985895588994026,-4.077601909637451,2.4559073448181152
1712834900539935200,15.891935302734375,-0.24877487123012543,-3.0421853065490723,2.493781089782715
1712834900559935200,15.911935302734374,-0.3959933817386627,-2.63901424407959,2.4852287769317627
1712834900579935200,15.931935302734376,-0.5914703011512756,-2.377563953399658,2.248213291168213
1712834900599935200,15.951935302734375,-0.7344127297401428,-1.4667638540267944,1.7277560234069824
1712834900619934700,15.971934814453125,-0.6550002694129944,-0.1295797973871231,0.9281333684921265
1712834900639934700,15.991934814453124,-0.3043636083602905,1.673694372177124,0.05887213721871376
1712834900659934700,16.011934814453124,0.40424007177352905,3.043865203857422,-0.1860848218202591
1712834900679934700,16.031934814453123,1.1464413404464722,3.722536563873291,-0.08345946669578552
1712834900699934700,16.051934814453126,1.4280502796173096,3.5111770629882812,-0.3516293168067932
1712834900719934700,16.071934814453126,1.8318321704864502,3.3468542098999023,-0.8586474657058716
1712834900739934700,16.091934814453126,2.110386610031128,3.5679874420166016,-1.404150128364563
1712834900759934700,16.111934814453125,1.9124664068222046,3.2637765407562256,-1.5373187065124512
1712834900779934700,16.131934814453125,1.943009614944458,2.6156485080718994,-1.3626112937927246
1712834900799934700,16.151934814453124,2.0315849781036377,1.7011833190917969,-1.045572280883789
1712834900819934700,16.171934814453124,1.9992092847824097,0.9944122433662415,-0.958218514919281
1712834900839934700,16.191934814453123,1.877036213874817,0.7818311452865601,-0.8647561073303223
1712834900859934700,16.211934814453127,1.6803375482559204,1.571679949760437,-0.7920631766319275
1712834900879934700,16.231934814453126,1.419498085975647,2.9699504375457764,-0.795728325843811
1712834900899934700,16.251934814453126,1.280220866203308,3.602806806564331,-0.8775842785835266
1712834900919934700,16.271934814453125,1.0615310668945312,4.02613639831543,-0.9618836641311646
1712834900939934700,16.291934814453125,0.6070473194122314,3.9503891468048096,-0.947833776473999
1712834900959934700,16.311934814453124,-0.17302757501602173,3.870976686477661,-0.8311585187911987
1712834900979934700,16.331934814453124,-0.849255383014679,4.100051403045654,-0.9930378198623657
1712834900999934700,16.351934814453124,-1.769829273223877,3.7500252723693848,-1.024802803993225
1712834901019935200,16.371935302734375,-2.199878454208374,2.6413049697875977,-0.6937138438224792
1712834901039935200,16.391935302734375,-2.3324363231658936,1.522810697555542,-0.2764928936958313
1712834901059935200,16.411935302734374,-2.6476426124572754,0.6517168879508972,0.17004960775375366
1712834901079935200,16.431935302734374,-2.7533223628997803,-0.017180584371089935,0.5145776271820068
1712834901099935200,16.451935302734373,-2.7850873470306396,-0.4227951169013977,0.725937008857727
1712834901119934700,16.471934814453125,-2.872441053390503,-0.3610977232456207,0.933631181716919
1712834901139934700,16.491934814453124,-2.7478246688842773,-0.46127963066101074,1.1932488679885864
1712834901159934700,16.511934814453124,-2.588388681411743,-0.6750824451446533,1.437595009803772
1712834901179934700,16.531934814453123,-2.5059218406677246,-0.9518043994903564,1.7082083225250244
1712834901199934700,16.551934814453126,-2.478433132171631,-1.670792818069458,2.052736282348633
1712834901219934700,16.571934814453126,-2.0984747409820557,-2.6603944301605225,2.1413116455078125
1712834901239934700,16.591934814453126,-1.3581061363220215,-4.405636310577393,2.034410238265991
1712834901259934700,16.611934814453125,-1.0545061826705933,-5.377522945404053,2.0319669246673584
1712834901279934700,16.631934814453125,-0.5633704662322998,-5.420894622802734,1.9934823513031006
1712834901299934700,16.651934814453124,0.11774427443742752,-5.087973117828369,2.0820577144622803
1712834901319934700,16.671934814453124,0.4873177409172058,-4.507650852203369,1.9690477848052979
1712834901339934700,16.691934814453123,0.3962988257408142,-3.976198196411133,2.287919521331787
1712834901359934700,16.711934814453127,0.3095559775829315,-3.8405861854553223,2.672764539718628
1712834901379934700,16.731934814453126,0.34437528252601624,-3.337233304977417,2.9836950302124023
1712834901399934700,16.751934814453126,0.10491610318422318,-2.5986971855163574,2.846250295639038
1712834901419934700,16.771934814453125,-0.20173825323581696,-2.080683469772339,2.7350728511810303
1712834901439934700,16.791934814453125,-0.3263547718524933,-1.1252901554107666,2.1938462257385254
1712834901459934700,16.811934814453124,-0.0832303911447525,0.37682750821113586,1.115058183670044
1712834901479934700,16.831934814453124,0.6235406994819641,1.646816372871399,0.48403435945510864
1712834901499934700,16.851934814453124,1.5349516868591309,2.918637752532959,-0.26977336406707764
1712834901519935200,16.871935302734375,2.143373489379883,4.129372596740723,-0.7034876942634583
1712834901539935200,16.891935302734375,2.2991440296173096,4.253378391265869,-0.5776494741439819
1712834901559935200,16.911935302734374,2.04013729095459,3.0432543754577637,-0.7621307373046875
1712834901579935200,16.931935302734374,2.0890064239501953,2.1471149921417236,-1.2587641477584839
1712834901599935200,16.951935302734373,1.874592661857605,1.6443729400634766,-1.5458709001541138
1712834901619934700,16.971934814453125,1.5887078046798706,1.50448477268219,-1.5544229745864868
1712834901639934700,16.991934814453124,1.553277611732483,1.7164549827575684,-1.4414129257202148
1712834901659934700,17.011934814453124,1.553277611732483,2.117793560028076,-1.3742177486419678
1712834901679934700,17.031934814453123,1.4860824346542358,2.572277307510376,-1.451797604560852
1712834901699934700,17.051934814453126,1.280220866203308,2.994385004043579,-1.472567081451416
1712834901719934700,17.071934814453126,1.0768027305603027,3.178255558013916,-1.3852132558822632
1712834901739934700,17.091934814453126,1.0645854473114014,3.234455108642578,-1.2587641477584839
1712834901759934700,17.111934814453125,1.0590876340866089,2.7836365699768066,-1.0846675634384155
1712834901779934700,17.131934814453125,0.8629998564720154,2.4934756755828857,-0.9032406210899353
1712834901799934700,17.151934814453124,0.3871358633041382,3.007824182510376,-0.9209557175636292
1712834901819934700,17.171934814453124,-0.4973970353603363,4.252156734466553,-1.4090369939804077
1712834901839934700,17.191934814453123,-1.1980594396591187,4.650440692901611,-1.4328607320785522
1712834901859934700,17.211934814453127,-1.315956473350525,3.686495304107666,-0.9521098136901855
1712834901879934700,17.231934814453126,-1.2725850343704224,2.1330649852752686,-0.5519931316375732
1712834901899934700,17.251934814453126,-1.4069753885269165,0.4556291103363037,-0.11766792088747025
1712834901919934700,17.271934814453125,-1.631773829460144,-0.4728860557079315,0.21464277803897858
1712834901939934700,17.291934814453125,-1.8015943765640259,-0.8412377834320068,0.4919756054878235
1712834901959934700,17.311934814453124,-1.906663179397583,-0.7587710022926331,0.7350999712944031
1712834901979934700,17.331934814453124,-1.8755090236663818,-0.3360522389411926,0.9293550848960876
1712834901999934700,17.351934814453124,-1.921934723854065,0.08116871863603592,1.0099893808364868
1712834902019935200,17.371935302734375,-2.0080668926239014,0.1123228445649147,1.1327732801437378
1712834902039935000,17.39193505859375,-1.8431332111358643,-0.2804635167121887,1.3673454523086548
1712834902059935200,17.411935302734374,-1.7020232677459717,-1.1594985723495483,1.9482783079147339
1712834902079935000,17.43193505859375,-1.524261474609375,-2.3622922897338867,2.402151107788086
1712834902099935200,17.451935302734373,-1.0850493907928467,-3.976198196411133,2.532876491546631
1712834902119934700,17.471934814453125,-0.9512699246406555,-5.4160075187683105,2.840141534805298
1712834902139934700,17.491934814453124,-0.4888449013233185,-6.357350826263428,3.0185141563415527
1712834902159934700,17.511934814453124,0.4127921760082245,-6.463030815124512,2.5316545963287354
1712834902179934700,17.531934814453123,0.536797821521759,-6.045809745788574,2.36611008644104
1712834902199934700,17.551934814453126,0.2698497176170349,-4.900437355041504,2.8077657222747803
1712834902219934700,17.571934814453126,-0.078343465924263,-3.867464303970337,2.9366583824157715
1712834902239934700,17.591934814453126,-0.20112738013267517,-2.7868435382843018,2.6269495487213135
1712834902259934700,17.611934814453125,-0.38866302371025085,-2.3091468811035156,2.739959716796875
1712834902279934700,17.631934814453125,-0.6501133441925049,-2.5541038513183594,2.8199830055236816
1712834902299934700,17.651934814453124,-0.6635523438453674,-2.756911277770996,2.4369704723358154
1712834902319934700,17.671934814453124,-0.5902485251426697,-1.9572886228561401,1.5988633632659912
1712834902339934700,17.691934814453123,-0.37950003147125244,-0.08804095536470413,0.8132907152175903
1712834902359934700,17.711934814453127,0.33948835730552673,2.17338228225708,0.011835514567792416
1712834902379934700,17.731934814453126,1.4628695249557495,4.213672161102295,-0.7621307373046875
1712834902399934700,17.751934814453126,1.7805194854736328,5.235649585723877,-1.0254136323928833
1712834902419934700,17.771934814453125,1.9949331283569336,5.357822895050049,-1.3363441228866577
1712834902439934700,17.791934814453125,2.278374671936035,5.104313850402832,-1.6839264631271362
1712834902459934700,17.811934814453124,2.3834433555603027,4.370053768157959,-1.8531360626220703
1712834902479934700,17.831934814453124,2.3577871322631836,3.4061081409454346,-1.7016414403915405
1712834902499934700,17.851934814453124,2.1757493019104004,2.469040870666504,-1.4353042840957642
1712834902519935000,17.87193505859375,1.9167424440383911,1.7818175554275513,-1.2929726839065552
1712834902539935000,17.89193505859375,1.762804388999939,1.3639857769012451,-1.4059827327728271
1712834902559935000,17.91193505859375,1.686446189880371,1.6058883666992188,-1.6368898153305054
1712834902579935000,17.93193505859375,1.6797267198562622,2.652911424636841,-1.6533831357955933
1712834902599935000,17.95193505859375,1.561829686164856,3.9754345417022705,-1.594129204750061
1712834902619934700,17.971934814453125,1.1916453838348389,4.4219770431518555,-1.5519795417785645
1712834902639934700,17.991934814453124,0.9894489645957947,3.8050031661987305,-1.5238797664642334
1712834902659934700,18.011934814453124,0.6882924437522888,3.1984140872955322,-1.2117276191711426
1712834902679934700,18.031934814453123,0.09392052888870239,3.5404984951019287,-1.3320679664611816
1712834902699934700,18.051934814453126,-0.7515169382095337,3.6241872310638428,-1.1347585916519165
1712834902719934700,18.071934814453126,-1.097266674041748,3.027371883392334,-1.034576654434204
1712834902739934700,18.091934814453126,-1.21027672290802,2.126345634460449,-0.8452084064483643
1712834902759934700,18.111934814453125,-1.5688546895980835,1.4287374019622803,-0.5605452060699463
1712834902779934700,18.131934814453125,-1.8095356225967407,0.9321039915084839,-0.25389087200164795
1712834902799934700,18.151934814453124,-1.8901697397232056,0.4757876694202423,-0.04986187443137169
1712834902819934700,18.171934814453124,-2.0282254219055176,0.2693152129650116,0.08636107295751572
1712834902839934700,18.191934814453123,-2.0838141441345215,0.14347697794437408,0.30688342452049255
1712834902859934700,18.211934814453127,-2.094198703765869,0.32184961438179016,0.5341253280639648
1712834902879934700,18.231934814453126,-2.0697641372680664,0.3487277030944824,0.7754170894622803
1712834902899934700,18.251934814453126,-2.1540634632110596,0.27847820520401,1.039921760559082
1712834902919934700,18.271934814453125,-2.1204659938812256,0.14347697794437408,1.344132661819458
1712834902939934700,18.291934814453125,-2.0428860187530518,-0.051999904215335846,1.7393624782562256
1712834902959934700,18.311934814453124,-1.931708574295044,-0.44661885499954224,2.10404896736145
1712834902979934700,18.331934814453124,-1.7863227128982544,-0.9799042344093323,2.410703420639038
1712834902999934700,18.351934814453124,-1.3629931211471558,-1.95423424243927,2.6471080780029297
1712834903019935000,18.37193505859375,-0.9750936627388,-3.2413272857666016,2.672764539718628
1712834903039935000,18.39193505859375,-0.8333728909492493,-4.5278096199035645,2.5628087520599365
1712834903059935000,18.41193505859375,-0.5193881988525391,-5.730603218078613,2.6135106086730957
1712834903079935000,18.43193505859375,0.046273041516542435,-6.97188138961792,3.150461196899414
1712834903099935000,18.45193505859375,0.899040937423706,-7.505777835845947,3.4723870754241943
1712834903119934700,18.471934814453125,1.2527319192886353,-7.414147853851318,3.2243757247924805
1712834903139934700,18.491934814453124,0.8776606321334839,-6.679276943206787,3.3410511016845703
1712834903159934700,18.511934814453124,0.17211128771305084,-4.805142402648926,3.2714123725891113
1712834903179934700,18.531934814453123,-0.35934147238731384,-3.083724021911621,2.852358818054199
1712834903199934700,18.551934814453126,-0.5829181671142578,-2.6219100952148438,2.9336040019989014
1712834903219934700,18.571934814453126,-0.6892086863517761,-2.398944139480591,2.8609111309051514
1712834903239934700,18.591934814453126,-0.7032586336135864,-1.6518559455871582,2.284254312515259
1712834903259934700,18.611934814453125,-0.44547349214553833,-0.32383492588996887,1.3013720512390137
1712834903279934700,18.631934814453125,0.21059578657150269,1.9033797979354858,0.3698025345802307
1712834903299934700,18.651934814453124,1.1879801750183105,4.273536682128906,-0.46586111187934875
1712834903319934700,18.671934814453124,1.874592661857605,6.443941116333008,-0.786565363407135
1712834903339934700,18.691934814453123,1.8666514158248901,6.191653728485107,-0.8824712038040161
1712834903359934700,18.711934814453127,1.9387335777282715,4.831867694854736,-1.3510048389434814
1712834903379934700,18.731934814453126,2.0981693267822266,3.178866386413574,-1.7340173721313477
1712834903399934700,18.751934814453126,2.0254764556884766,1.9119318723678589,-1.7077502012252808
1712834903419934700,18.771934814453125,1.9656116962432861,1.0390053987503052,-1.3870458602905273
1712834903439934700,18.791934814453125,1.914909839630127,0.7305184602737427,-1.060843825340271
1712834903459934700,18.811934814453124,1.7609717845916748,0.924773633480072,-0.9942595362663269
1712834903479934700,18.831934814453124,1.5917620658874512,1.6535358428955078,-0.9979247450828552
1712834903499934700,18.851934814453124,1.3883439302444458,2.859994649887085,-0.9014080166816711
1712834903519935000,18.87193505859375,1.2472341060638428,3.334636926651001,-0.938670814037323
1712834903539935000,18.89193505859375,1.0407617092132568,3.6657259464263916,-0.9826530814170837
1712834903559935000,18.91193505859375,0.6516404747962952,3.851428985595703,-1.0626764297485352
1712834903579935000,18.93193505859375,0.3315471112728119,3.5178966522216797,-0.9441685676574707
1712834903599935000,18.95193505859375,-0.044745877385139465,3.423823356628418,-1.0461831092834473
1712834903619934700,18.971934814453125,-0.633009135723114,3.6199111938476562,-1.1732430458068848
1712834903639934700,18.991934814453124,-1.3507757186889648,3.301039457321167,-1.081613302230835
1712834903659934700,19.011934814453124,-1.6989690065383911,2.111684799194336,-0.44570255279541016
1712834903679934700,19.031934814453123,-1.923156499862671,0.9033933281898499,0.0069485921412706375
1712834903699934700,19.051934814453126,-2.372753381729126,0.06039930135011673,-0.10422888398170471
1712834903719934700,19.071934814453126,-2.3403775691986084,-0.5651267170906067,0.3606395721435547
1712834903739934700,19.091934814453126,-2.378251075744629,-1.1802680492401123,1.017319679260254
1712834903759934700,19.111934814453125,-2.4381158351898193,-1.8503872156143188,1.4632513523101807
1712834903779934700,19.131934814453125,-2.2823452949523926,-2.609081745147705,0.9397398233413696
1712834903799934700,19.151934814453124,-2.2285890579223633,-3.660991668701172,0.9782243371009827
1712834903819934700,19.171934814453124,-1.658041000366211,-4.811861991882324,1.5096770524978638
1712834903839934700,19.191934814453123,-0.8516988754272461,-5.288336753845215,1.9452240467071533
1712834903859934700,19.211934814453127,-0.128434419631958,-5.690896987915039,1.7393624782562256
1712834903879934700,19.231934814453126,0.10980302840471268,-5.561393737792969,2.047849416732788
1712834903899934700,19.251934814453126,0.23197607696056366,-4.853400707244873,2.541428565979004
1712834903919934700,19.271934814453125,0.204487144947052,-3.856468677520752,2.8425850868225098
1712834903939934700,19.291934814453125,-0.18035796284675598,-2.661616325378418,2.859689235687256
1712834903959934700,19.311934814453124,-0.6159048676490784,-1.9621754884719849,2.8004353046417236
1712834903979934700,19.331934814453124,-1.1962268352508545,-2.3842833042144775,3.1351895332336426
1712834903999934700,19.351934814453124,-1.5493069887161255,-3.083113193511963,2.865187168121338
1712834904019935000,19.37193505859375,-1.3703234195709229,-2.965827226638794,1.8163315057754517
1712834904039935000,19.39193505859375,-1.3434454202651978,0.10926852375268936,1.218294382095337
1712834904059935000,19.41193505859375,-0.554818332195282,2.2576816082000732,1.0814605951309204
1712834904079935000,19.43193505859375,0.8184067010879517,3.468416452407837,-0.3925572633743286
1712834904099935000,19.45193505859375,1.7664695978164673,4.823315620422363,-0.9337838888168335
1712834904119934700,19.471934814453125,1.8898643255233765,5.037118434906006,-0.6924921274185181
1712834904139934700,19.491934814453124,2.1653645038604736,4.446411609649658,-1.0614547729492188
1712834904159934700,19.511934814453124,2.4830145835876465,3.4189364910125732,-1.4915038347244263
1712834904179934700,19.531934814453123,2.3626739978790283,2.7634780406951904,-1.5922966003417969
1712834904199934700,19.551934814453126,2.063350200653076,2.486145257949829,-1.412702202796936
1712834904219934700,19.571934814453126,2.015702486038208,2.2075905799865723,-1.2789227962493896
1712834904239934700,19.591934814453126,2.029752492904663,1.902768850326538,-1.2269991636276245
1712834904259934700,19.611934814453125,1.8617645502090454,2.750649929046631,-1.3345115184783936
1712834904279934700,19.631934814453125,1.761582612991333,3.977267265319824,-1.4707344770431519
1712834904299934700,19.651934814453124,1.4152220487594604,4.852026462554932,-1.5678620338439941
1712834904319934700,19.671934814453124,1.0560332536697388,5.208771705627441,-1.5440382957458496
1712834904339934700,19.691934814453123,0.7530441284179688,5.021235942840576,-1.5391513109207153
1712834904359934700,19.711934814453127,0.14340060949325562,4.2820892333984375,-1.1927907466888428
1712834904379934700,19.731934814453126,-0.4973970353603363,3.879528760910034,-0.7456374168395996
1712834904399934700,19.751934814453126,-1.3293955326080322,4.050570964813232,-0.9588293433189392
1712834904419934700,19.771934814453125,-2.2090413570404053,3.524616003036499,-0.8549822568893433
1712834904439934700,19.791934814453125,-2.3073906898498535,2.2949442863464355,-0.4676937162876129
1712834904459934700,19.811934814453124,-2.245082378387451,1.1733957529067993,-0.07002042979001999
1712834904479934700,19.831934814453124,-2.384359836578369,0.36766451597213745,0.20486892759799957
1712834904499934700,19.851934814453124,-2.529745578765869,-0.1656208336353302,0.2647337317466736
1712834904519935000,19.87193505859375,-2.5889995098114014,-0.5449681282043457,0.31665727496147156
1712834904539935000,19.89193505859375,-2.5694520473480225,-0.7184538841247559,0.5701663494110107
1712834904559935000,19.91193505859375,-2.4937045574188232,-0.8021424412727356,0.9666178822517395
1712834904579935000,19.93193505859375,-2.4613287448883057,-0.6518695950508118,1.1865293979644775
1712834904599935000,19.95193505859375,-2.4918720722198486,-0.3519347310066223,1.2054661512374878
1712834904619935000,19.97193505859375,-2.4417810440063477,-0.16317738592624664,1.2408963441848755
1712834904639935000,19.99193505859375,-2.250580310821533,-0.12896892428398132,1.5157856941223145
1712834904659935000,20.01193505859375,-2.0343339443206787,-0.27374398708343506,1.884137511253357
1712834904679935000,20.03193505859375,-1.91399347782135,-0.6793584823608398,2.1749093532562256
1712834904699934500,20.0519345703125,-1.7130188941955566,-1.358029842376709,2.3178517818450928
1712834904719934200,20.071934326171874,-1.2817480564117432,-2.438039541244507,2.360612392425537
1712834904739934200,20.091934326171874,-1.0520626306533813,-4.2547526359558105,2.468735456466675
1712834904759934200,20.111934326171873,-0.8663596510887146,-5.645081996917725,2.5646414756774902
1712834904779934200,20.131934326171876,-0.4082106947898865,-6.636516571044922,3.0820441246032715
1712834904799934700,20.151934814453124,0.5710062980651855,-6.772739410400391,3.3434946537017822
1712834904819934500,20.1719345703125,1.1397218704223633,-6.640792369842529,2.938490867614746
1712834904839934500,20.1919345703125,1.1507173776626587,-6.134385108947754,3.468111038208008
1712834904859934500,20.2119345703125,0.5404630303382874,-4.779486179351807,3.5652387142181396
1712834904879934500,20.2319345703125,-0.19685132801532745,-3.5699727535247803,3.027677297592163
1712834904899934500,20.2519345703125,-0.612850546836853,-3.62983775138855,3.071659564971924
1712834904919935200,20.271935302734374,-0.9805914163589478,-3.9199986457824707,3.025233745574951
1712834904939935200,20.291935302734377,-0.9970847964286804,-3.725132703781128,2.446133613586426
1712834904959935200,20.311935302734376,-0.8718574047088623,-2.0324249267578125,1.673388957977295
1712834904979935200,20.331935302734376,0.020005837082862854,0.48433977365493774,0.6147595047950745
1712834904999935700,20.351935791015624,1.7872389554977417,2.8361709117889404,0.2580142021179199
1712834905019936000,20.37193603515625,2.3498458862304688,4.458629131317139,0.2751184403896332
1712834905039936300,20.391936279296875,2.1476495265960693,5.282686233520508,-0.7645742297172546
1712834905059936300,20.411936279296874,2.2936463356018066,5.727396011352539,-1.4023175239562988
1712834905079936300,20.431936279296874,2.6393959522247314,5.53436279296875,-1.6552157402038574
1712834905099936300,20.451936279296874,2.4830145835876465,4.707251071929932,-1.5196036100387573
1712834905119936000,20.47193603515625,2.1317670345306396,3.5557701587677,-1.3784937858581543
1712834905139936000,20.49193603515625,2.0871739387512207,2.555172920227051,-1.3497830629348755
1712834905159936000,20.51193603515625,2.176970958709717,1.743333101272583,-1.16835618019104
1712834905179936000,20.53193603515625,2.230727195739746,1.3670400381088257,-0.909960150718689
1712834905199936000,20.55193603515625,2.1122193336486816,2.1043543815612793,-0.6619488596916199
1712834905219935700,20.571935791015626,2.013259172439575,3.1959705352783203,-0.6955464482307434
1712834905239936000,20.59193603515625,1.6131423711776733,4.043851375579834,-0.7914522886276245
1712834905259936000,20.61193603515625,1.08718740940094,4.442746639251709,-0.9203448295593262
1712834905279936000,20.63193603515625,0.7835873961448669,4.410370826721191,-0.9362273216247559
1712834905299936500,20.6519365234375,0.4775438904762268,4.66326904296875,-0.7413613200187683
1712834905319936500,20.6719365234375,-0.6635523438453674,5.0890421867370605,-1.2709815502166748
1712834905339936500,20.6919365234375,-1.505935549736023,4.362112522125244,-1.0962740182876587
1712834905359936500,20.7119365234375,-1.8150333166122437,2.7921886444091797,-0.31925344467163086
1712834905379936500,20.7319365234375,-2.172389507293701,1.5460236072540283,0.2537381649017334
1712834905399936000,20.75193603515625,-2.5248587131500244,0.8245916962623596,0.49930599331855774
1712834905419936300,20.771936279296874,-2.518139362335205,0.3487277030944824,0.6923394203186035
1712834905439936300,20.791936279296873,-2.4417810440063477,0.032299499958753586,0.8853728175163269
1712834905459936300,20.811936279296877,-2.3318252563476562,-0.27802005410194397,1.1755337715148926
1712834905479936300,20.831936279296876,-2.216371774673462,-0.6231589317321777,1.436373233795166
1712834905499936300,20.851936279296876,-2.0062341690063477,-0.9799042344093323,1.6880497932434082
1712834905519935700,20.871935791015623,-1.8321375846862793,-1.4478269815444946,2.0069212913513184
1712834905539935700,20.891935791015626,-1.8987219333648682,-2.1081724166870117,2.340453863143921
1712834905559935700,20.911935791015626,-1.7661641836166382,-3.0012574195861816,2.6917014122009277
1712834905579935700,20.931935791015626,-1.5511395931243896,-4.061108589172363,3.111365795135498
1712834905599935200,20.951935302734373,-1.1039862632751465,-5.2174763679504395,3.2891275882720947
1712834905619935000,20.97193505859375,-0.4069889783859253,-6.514954090118408,3.1712305545806885
1712834905639934700,20.991934814453124,0.18127426505088806,-7.470958232879639,2.960482120513916
1712834905659934700,21.011934814453124,0.6327036619186401,-6.98776388168335,2.9177215099334717
1712834905679934700,21.031934814453123,0.4824308156967163,-5.55467414855957,2.829145908355713
1712834905699934700,21.051934814453126,-0.21578814089298248,-2.9920942783355713,2.3557255268096924
1712834905719934700,21.071934814453126,-0.3758348524570465,-1.4728724956512451,2.173687696456909
1712834905739934700,21.091934814453126,-0.4625777006149292,-1.7416532039642334,2.605569362640381
1712834905759934700,21.111934814453125,-0.41981714963912964,-2.4960718154907227,2.782109498977661
1712834905779934700,21.131934814453125,-0.48579058051109314,-2.5632669925689697,2.251267433166504
1712834905799934700,21.151934814453124,-0.47418415546417236,-1.279839038848877,1.2048553228378296
1712834905819934700,21.171934814453124,0.029168816283345222,1.323057770729065,-0.36506834626197815
1712834905839934500,21.1919345703125,1.0926852226257324,3.94061541557312,-0.899575412273407
1712834905859934500,21.2119345703125,2.012648344039917,5.1592912673950195,-0.3027600944042206
1712834905879934500,21.2319345703125,1.7499761581420898,3.6816084384918213,-0.6045275330543518
1712834905899934500,21.2519345703125,1.9643899202346802,2.759202003479004,-1.3797155618667603
1712834905919934700,21.271934814453125,2.3400721549987793,2.4177281856536865,-1.5867987871170044
1712834905939934700,21.291934814453125,2.123825788497925,2.086639404296875,-1.3210724592208862
1712834905959934700,21.311934814453124,1.8648189306259155,1.751885175704956,-1.0211375951766968
1712834905979934700,21.331934814453124,1.8489364385604858,1.7897588014602661,-0.9142361879348755
1712834905999934700,21.351934814453124,1.6601790189743042,2.0988566875457764,-1.0107529163360596
1712834906019935000,21.37193505859375,1.4164438247680664,2.8416688442230225,-1.1341476440429688
1712834906039935000,21.39193505859375,1.2362385988235474,3.876474380493164,-1.2764792442321777
1712834906059935000,21.41193505859375,0.9863946437835693,4.463515758514404,-1.2838096618652344
1712834906079935000,21.43193505859375,0.6070473194122314,4.669988632202148,-1.2074514627456665
1712834906099935000,21.45193505859375,0.265573650598526,4.227111339569092,-1.1188760995864868
1712834906119934700,21.471934814453125,-0.013591751456260681,3.390225648880005,-0.8543714284896851
1712834906139934700,21.491934814453124,-0.5010622143745422,3.018819570541382,-0.6026949286460876
1712834906159934700,21.511934814453124,-1.353830099105835,3.4757468700408936,-0.8000044226646423
1712834906179934700,21.531934814453123,-2.3134994506835938,3.6651151180267334,-1.0180833339691162
1712834906199934700,21.551934814453126,-2.554791212081909,2.8691577911376953,-0.7273114323616028
1712834906219934700,21.571934814453126,-2.3678665161132812,1.3572661876678467,-0.3669009506702423
1712834906239934700,21.591934814453126,-2.4882068634033203,0.137979194521904,-0.04558581858873367
1712834906259934700,21.611934814453125,-2.398409605026245,-0.9444740414619446,0.4168391823768616
1712834906279934700,21.631934814453125,-2.359314203262329,-1.6604081392288208,1.0374782085418701
1712834906299934700,21.651934814453124,-2.2267565727233887,-2.153987169265747,1.5402203798294067
1712834906319934700,21.671934814453124,-2.0819814205169678,-2.433152675628662,1.6709455251693726
1712834906339934700,21.691934814453123,-2.2041544914245605,-2.653675079345703,1.6843845844268799
1712834906359934700,21.711934814453127,-1.9604192972183228,-2.924899101257324,1.7424167394638062
1712834906379934700,21.731934814453126,-1.4332425594329834,-3.631059408187866,1.8835266828536987
1712834906399934700,21.751934814453126,-0.9042332768440247,-4.6395978927612305,2.0380754470825195
1712834906419934700,21.771934814453125,-0.4766276180744171,-5.346368789672852,2.1920135021209717
1712834906439934700,21.791934814453125,-0.18341228365898132,-5.476483345031738,2.5090527534484863
1712834906459934700,21.811934814453124,0.18310685455799103,-4.912043571472168,2.480341911315918
1712834906479934700,21.831934814453124,0.355981707572937,-4.2181010246276855,2.36611008644104
1712834906499934700,21.851934814453124,0.12324206531047821,-3.3641111850738525,2.55547833442688
1712834906519935000,21.87193505859375,0.005345070734620094,-2.3146448135375977,2.6519951820373535
1712834906539935000,21.89193505859375,-0.20173825323581696,-1.777083396911621,2.6293931007385254
1712834906559935000,21.91193505859375,-0.5236642360687256,-1.9560668468475342,2.7802767753601074
1712834906579935000,21.93193505859375,-0.7148650288581848,-2.2999839782714844,2.6434431076049805
1712834906599935000,21.95193505859375,-0.7215845584869385,-1.9169714450836182,2.017306089401245
1712834906619934700,21.971934814453125,-0.36422839760780334,-0.3836997449398041,1.0197631120681763
1712834906639934700,21.991934814453124,0.0731511116027832,1.8031978607177734,0.26351198554039
1712834906659934700,22.011934814453124,0.9240863919258118,4.0004801750183105,-0.5171737670898438
1712834906679934700,22.031934814453123,1.5722143650054932,5.232595443725586,-0.9398925304412842
1712834906699934700,22.051934814453126,2.001652717590332,5.472665309906006,-1.1622475385665894
1712834906719934700,22.071934814453126,2.506227493286133,5.260694980621338,-1.4291956424713135
1712834906739934700,22.091934814453126,2.685210943222046,4.862411022186279,-1.7535650730133057
1712834906759934700,22.111934814453125,2.649780750274658,4.2491021156311035,-1.8586338758468628
1712834906779934700,22.131934814453125,2.5563182830810547,3.2851569652557373,-1.73646080493927
1712834906799934700,22.151934814453124,2.314415693283081,2.653522253036499,-1.622228980064392
1712834906819934700,22.171934814453124,1.8996381759643555,2.2912790775299072,-1.7828866243362427
1712834906839934700,22.191934814453123,1.764026165008545,2.2863922119140625,-1.9447659254074097
1712834906859934700,22.211934814453127,1.7573065757751465,3.200246572494507,-1.953928828239441
1712834906879934700,22.231934814453126,1.6473509073257446,4.556978225708008,-1.908113956451416
1712834906899934700,22.251934814453126,1.399950385093689,5.151961326599121,-1.8696293830871582
1712834906919934700,22.271934814453125,1.1513283252716064,4.889288902282715,-1.8696293830871582
1712834906939934700,22.291934814453125,0.9137017130851746,3.951610803604126,-1.7389042377471924
1712834906959934700,22.311934814453124,0.4567744731903076,3.097621202468872,-1.4206434488296509
1712834906979934700,22.331934814453124,-0.2817615866661072,2.994385004043579,-1.3864350318908691
1712834906999934700,22.351934814453124,-1.2292135953903198,2.896035671234131,-1.2276101112365723
1712834907019935000,22.37193505859375,-1.751503348350525,2.3248767852783203,-0.9686031937599182
1712834907039935000,22.39193505859375,-2.0832033157348633,1.7787632942199707,-0.5825363397598267
1712834907059935000,22.41193505859375,-2.3568708896636963,1.3554335832595825,-0.2013564556837082
1712834907079935000,22.43193505859375,-2.414292097091675,0.9742537140846252,-0.06330090761184692
1712834907099935000,22.45193505859375,-2.4582743644714355,0.7818311452865601,0.022831087931990623
1712834907119934700,22.471934814453125,-2.3605360984802246,0.47762027382850647,0.15599970519542694
1712834907139934700,22.491934814453124,-2.1601722240448,0.17402023077011108,0.4553236961364746
1712834907159934700,22.511934814453124,-2.0538816452026367,-0.10758864134550095,0.8377253413200378
1712834907179934700,22.531934814453123,-1.9530888795852661,-0.46677741408348083,1.0924561023712158
1712834907199934700,22.551934814453126,-1.8883371353149414,-0.8302422165870667,1.2580006122589111
1712834907219934700,22.571934814453126,-1.923156499862671,-0.9322566986083984,1.4779120683670044
1712834907239934700,22.591934814453126,-1.951256275177002,-1.1723268032073975,1.702710509300232
1712834907259934700,22.611934814453125,-1.7020232677459717,-1.697670817375183,1.686217188835144
1712834907279934700,22.631934814453125,-1.553583025932312,-2.270662546157837,1.6892714500427246
1712834907299934700,22.651934814453124,-1.4827226400375366,-2.9639945030212402,1.9659934043884277
1712834907319934700,22.671934814453124,-1.0288498401641846,-3.921220302581787,2.2726478576660156
1712834907339934700,22.691934814453123,-0.35384368896484375,-5.019556045532227,2.758896589279175
1712834907359934700,22.711934814453127,0.35292738676071167,-5.861939430236816,2.9781970977783203
1712834907379934700,22.731934814453126,0.7432702779769897,-6.124000549316406,3.097315788269043
1712834907399934700,22.751934814453126,1.0364855527877808,-6.22418212890625,3.5127041339874268
1712834907419934700,22.771934814453125,1.0932960510253906,-6.0690226554870605,3.7888152599334717
1712834907439934700,22.791934814453125,0.5129740834236145,-4.694575786590576,3.6043341159820557
1712834907459934700,22.811934814453124,-0.1895209401845932,-2.943835973739624,3.236593246459961
1712834907479934700,22.831934814453124,-0.5010622143745422,-2.005547046661377,3.1162526607513428
1712834907499934700,22.851934814453124,-0.7582364678382874,-1.7324901819229126,2.812041759490967
1712834907519935000,22.87193505859375,-0.8895725011825562,-1.4716507196426392,2.1327595710754395
1712834907539935000,22.89193505859375,-0.7832819819450378,-0.07887797802686691,1.0881800651550293
1712834907559935000,22.91193505859375,0.04382958263158798,1.5838972330093384,0.32704198360443115
1712834907579935000,22.93193505859375,1.3022119998931885,3.258889675140381,-0.1964695304632187
1712834907599935000,22.95193505859375,1.897194743156433,4.4836745262146,-0.43043091893196106
1712834907619934700,22.971934814453125,2.029752492904663,4.645554065704346,-0.7951174974441528
1712834907639934700,22.991934814453124,2.2405009269714355,4.52460241317749,-1.1103239059448242
1712834907659934700,23.011934814453124,2.250274896621704,3.828216075897217,-1.407204508781433
1712834907679934700,23.031934814453123,2.054797887802124,2.767754077911377,-1.4652366638183594
1712834907699934700,23.051934814453126,1.7652478218078613,2.045100450515747,-1.3320679664611816
1712834907719934700,23.071934814453126,1.6241379976272583,1.873447299003601,-1.2599859237670898
1712834907739934700,23.091934814453126,1.5697709321975708,2.086639404296875,-1.308244228363037
1712834907759934700,23.111934814453125,1.5025757551193237,2.6400833129882812,-1.2398273944854736
1712834907779934700,23.131934814453125,1.192256212234497,3.4256558418273926,-1.1714104413986206
1712834907799934700,23.151934814453124,0.7487680912017822,4.095775127410889,-1.1756864786148071
1712834907819934700,23.171934814453124,0.6742424964904785,3.566765785217285,-1.2941943407058716
1712834907839934700,23.191934814453123,0.5960517525672913,2.809292793273926,-1.235551357269287
1712834907859934700,23.211934814453127,0.34926220774650574,2.279672622680664,-0.919123113155365
1712834907879934700,23.231934814453126,0.12079860270023346,1.903990626335144,-0.7835110425949097
1712834907899934700,23.251934814453126,-0.2347249686717987,1.8386280536651611,-0.6729444265365601
1712834907919934700,23.271934814453125,-0.716697633266449,2.2833378314971924,-0.80550217628479
1712834907939934700,23.291934814453125,-1.3843733072280884,2.622978925704956,-1.080391526222229
1712834907959934700,23.311934814453124,-1.9909625053405762,2.4067327976226807,-0.8079456686973572
1712834907979934700,23.331934814453124,-2.1986567974090576,2.0017290115356445,-0.2813797891139984
1712834907999934700,23.351934814453124,-2.3709206581115723,1.5674039125442505,0.05337435007095337
1712834908019935000,23.37193505859375,-2.5529584884643555,1.1605676412582397,0.2482403665781021
1712834908039935000,23.39193505859375,-2.5578455924987793,0.8685740232467651,0.545120894908905
1712834908059935000,23.41193505859375,-2.5499043464660645,0.47456592321395874,0.9012553095817566
1712834908079935000,23.43193505859375,-2.364812135696411,0.09582948684692383,1.2836569547653198
1712834908099935000,23.45193505859375,-2.158339738845825,-0.3116176426410675,1.655673861503601
1712834908119934700,23.471934814453125,-2.070985794067383,-0.7569383978843689,2.008754014968872
1712834908139934700,23.491934814453124,-2.028836250305176,-1.3348169326782227,2.2799782752990723
1712834908159934700,23.511934814453124,-1.860848307609558,-2.126498222351074,2.413757562637329
1712834908179934700,23.531934814453123,-1.5932892560958862,-3.2291100025177,2.609234571456909
1712834908199934700,23.551934814453126,-1.419803500175476,-4.369595527648926,2.7167468070983887
1712834908219934700,23.571934814453126,-0.9469938278198242,-5.492976665496826,2.921997547149658
1712834908239934700,23.591934814453126,-0.24388794600963593,-6.403165817260742,3.1938326358795166
1712834908259934700,23.611934814453125,0.45433104038238525,-6.803893566131592,3.0734920501708984
1712834908279934700,23.631934814453125,0.7664831876754761,-6.768463134765625,2.8676304817199707
1712834908299934700,23.651934814453124,0.7249443531036377,-5.8875956535339355,3.0686051845550537
1712834908319934700,23.671934814453124,0.43478333950042725,-4.662810802459717,3.3160057067871094
1712834908339934700,23.691934814453123,0.14034628868103027,-3.063565492630005,3.1150310039520264
1712834908359934700,23.711934814453127,-0.09728029370307922,-2.089235544204712,2.885345697402954
1712834908379934700,23.731934814453126,-0.5713117122650146,-2.1277201175689697,3.0264554023742676
1712834908399934700,23.751934814453126,-0.8504771590232849,-2.5205063819885254,2.7130815982818604
1712834908419934700,23.771934814453125,-0.946382999420166,-1.868713140487671,2.0936641693115234
1712834908439934700,23.791934814453125,-0.555429220199585,-0.2981785833835602,1.1761447191238403
1712834908459934700,23.811934814453124,0.27229318022727966,2.2082014083862305,0.27084237337112427
1712834908479934700,23.831934814453124,1.7603609561920166,4.972977638244629,-0.2819906771183014
1712834908499934700,23.851934814453124,1.9717203378677368,6.323600769042969,-0.644844651222229
1712834908519935000,23.87193505859375,2.0254764556884766,6.269233703613281,-1.0504591464996338
1712834908539935000,23.89193505859375,2.2514965534210205,5.252753734588623,-1.3925436735153198
1712834908559935000,23.91193505859375,2.3357958793640137,3.7622427940368652,-1.594129204750061
1712834908579935000,23.93193505859375,2.200183868408203,2.3370940685272217,-1.5110515356063843
1712834908599935000,23.95193505859375,1.9759963750839233,1.5203672647476196,-1.4689018726348877
1712834908619934700,23.971934814453125,1.723708987236023,1.2228758335113525,-1.5813010931015015
1712834908639934700,23.991934814453124,1.7988454103469849,1.7641024589538574,-1.6387224197387695
1712834908659934700,24.011934814453124,1.7585283517837524,3.0676889419555664,-1.6228399276733398
1712834908679934700,24.031934814453123,1.4140002727508545,4.19962215423584,-1.497612476348877
1712834908699934700,24.051934814453126,1.0670288801193237,4.549647808074951,-1.487838625907898
1712834908719934700,24.071934814453126,0.8611672520637512,4.3999857902526855,-1.5984052419662476
1712834908739934700,24.091934814453126,0.7011205554008484,3.7634644508361816,-1.453019380569458
1712834908759934700,24.111934814453125,0.6198754906654358,3.099453926086426,-1.3430635929107666
1712834908779934700,24.131934814453125,0.19226983189582825,2.9314658641815186,-1.2844204902648926
1712834908799934700,24.151934814453124,-0.37522396445274353,3.184364080429077,-1.6649895906448364
1712834908819934700,24.171934814453124,-0.7099781036376953,2.181323528289795,-1.1176543235778809
1712834908839934700,24.191934814453123,-0.8211556077003479,1.2961796522140503,-0.634459912776947
1712834908859934700,24.211934814453127,-1.088714599609375,0.8166504502296448,-0.4896848499774933
1712834908879934700,24.231934814453126,-1.4521794319152832,0.5032765865325928,-0.3815616965293884
1712834908899934700,24.251934814453126,-1.924989104270935,0.3548363447189331,0.08636107295751572
1712834908919934700,24.271934814453125,-2.283566951751709,0.40248385071754456,0.5493969321250916
1712834908939934700,24.291934814453125,-2.4668266773223877,0.2381610870361328,0.9458484649658203
1712834908959934700,24.311934814453124,-2.4698808193206787,-0.1753946840763092,1.4424818754196167
1712834908979934700,24.331934814453124,-2.3483188152313232,-0.9890671968460083,1.8908569812774658
1712834908999934700,24.351934814453124,-2.2621867656707764,-2.080683469772339,2.4754550457000732
1712834909019935000,24.37193505859375,-2.271960496902466,-3.1466431617736816,2.745457410812378
1712834909039935000,24.39193505859375,-1.8522961139678955,-4.087375640869141,2.5487589836120605
1712834909059935000,24.41193505859375,-1.3300063610076904,-5.340871334075928,2.711859941482544
1712834909079935000,24.43193505859375,-0.5248859524726868,-5.943795204162598,2.8975629806518555
1712834909099935000,24.45193505859375,0.06154467165470123,-5.882708549499512,2.324571371078491
1712834909119934700,24.471934814453125,0.05421429127454758,-5.562615394592285,2.388712167739868
1712834909139934700,24.491934814453124,0.1495092660188675,-4.769711971282959,2.7503445148468018
1712834909159934700,24.511934814453124,0.12751811742782593,-3.9193878173828125,2.7246880531311035
1712834909179934700,24.531934814453123,-0.0734565481543541,-2.650620698928833,2.544482707977295
1712834909199934700,24.551934814453126,-0.3715587854385376,-1.7721964120864868,2.564030408859253
1712834909219934700,24.571934814453126,-0.7570147514343262,-2.058692216873169,2.6122889518737793
1712834909239934700,24.591934814453126,-1.04289972782135,-2.421546220779419,2.215226411819458
1712834909259934700,24.611934814453125,-1.0123564004898071,-1.725159764289856,1.4009430408477783
1712834909279934700,24.631934814453125,-0.5096143484115601,-0.06360634416341782,0.5072472095489502
1712834909299934700,24.651934814453124,0.44577890634536743,2.352365732192993,-0.4029420018196106
1712834909319934700,24.671934814453124,1.4763085842132568,4.185572147369385,-0.7688502669334412
1712834909339934700,24.691934814453123,1.8752036094665527,4.984583854675293,-0.7163158655166626
1712834909359934700,24.711934814453127,1.9766072034835815,4.283310890197754,-0.909960150718689
1712834909379934700,24.731934814453126,2.3461806774139404,3.3841171264648438,-1.3742177486419678
1712834909399934700,24.751934814453126,2.5227208137512207,2.5209646224975586,-1.5922966003417969
1712834909419934700,24.771934814453125,2.3186917304992676,1.6596444845199585,-1.4548519849777222
1712834909439934700,24.791934814453125,2.1616992950439453,1.4873805046081543,-1.2660945653915405
1712834909459934700,24.811934814453124,1.9924896955490112,1.7482199668884277,-1.1891255378723145
1712834909479934700,24.831934814453124,1.8281669616699219,2.2198078632354736,-1.222723126411438
1712834909499934700,24.851934814453124,1.5508341789245605,2.7921886444091797,-1.1744648218154907
1712834909519935000,24.87193505859375,1.2008084058761597,3.5484397411346436,-1.054124355316162
1712834909539935000,24.89193505859375,1.0004445314407349,3.57470703125,-1.0895545482635498
1712834909559935000,24.91193505859375,0.7579310536384583,3.5319464206695557,-1.1139891147613525
1712834909579935000,24.93193505859375,0.4567744731903076,3.5704309940338135,-0.9936487078666687
1712834909599935000,24.95193505859375,0.15622878074645996,3.370677947998047,-0.7945066094398499
1712834909619934700,24.971934814453125,-0.22250767052173615,3.0646345615386963,-0.5232824683189392
1712834909639934700,24.991934814453124,-0.3257438838481903,2.4922537803649902,-0.38095083832740784
1712834909659934700,25.011934814453124,-0.6598871946334839,2.483090877532959,-0.43470698595046997
1712834909679934700,25.031934814453123,-1.1088731288909912,2.452547550201416,-0.3168099820613861
1712834909699934700,25.051934814453126,-1.6757560968399048,2.528294801712036,-0.41149410605430603
1712834909719934700,25.071934814453126,-2.0972530841827393,2.1385629177093506,-0.3461315333843231
